trials.thisRepN,trials.thisTrialN,trials.thisN,trials.thisIndex,loop_test.thisRepN,loop_test.thisTrialN,loop_test.thisN,loop_test.thisIndex,loop_eval_discri.thisRepN,loop_eval_discri.thisTrialN,loop_eval_discri.thisN,loop_eval_discri.thisIndex,loop_eval.thisRepN,loop_eval.thisTrialN,loop_eval.thisN,loop_eval.thisIndex,loop_discri.thisRepN,loop_discri.thisTrialN,loop_discri.thisN,loop_discri.thisIndex,thisRow.t,notes,Set_up.started,Set_up.stopped,electrode_check.started,electrode_check.stopped,instructions_eval.started,instructions_eval.stopped,pause_5_test.started,pause_5_test.stopped,Phase_Test.started,thermode_locali.started,Phase_Test.stopped,loca_thermode,condition,temp_trial_sent,eval_douleur.started,eval_douleur.stopped,ratingScale.response,ratingScale.rt,thermode_locali.stopped,Fin_test.started,text.started,Fin_test.stopped,pause_5_EVA.started,pause_5_EVA.stopped,tâche_EVA.started,thermode_locali_EVA.started,thermode_locali_EVA.stopped,tâche_EVA.stopped,instructions_discrim.started,instructions_discrim.stopped,pause_5_pic.started,pause_5_pic.stopped,tâche_PIC.started,thermode_locali_pic.started,percu_or.started,responser.started,thermode_locali_pic.stopped,percu_or.stopped,responser.stopped,tâche_PIC.stopped,dur_plateau1,dur_plateau2,dur_plateau1_sent,dur_plateau2_sent,start_plateau_2_resp,dur_pic,dur_rise,pic_presence,pic_response,discrimin_resp.keys,discrimin_resp.rt,discrimin_resp.duration,break_entre_bloc.started,break_entre_bloc.stopped,merci.started,merci.stopped,participant,temp_flat,temp_active,temp_pic_set,com_thermode,date,expName,psychopyVersion,frameRate,expStart,
0,0,0,0,0,0,0,0,,,,,,,,,,,,,186.18558359984308,,0.017076199874281883,184.68605449981987,184.68646250013262,185.6026880000718,185.60269630001858,186.15269629983231,186.15298660006374,191.1691338000819,191.16914540017024,191.18575729988515,203.1692519998178,0,inactive,44.5,203.16950279986486,205.70440640021116,14.499999999999993,2.512,,,,,,,,,,,,,,,,,,,,,,,,,,,,,,,,,,,,,,,sub-044,44.5,43.1,45.1,COM3,2024-06-20_11h32.55.000,2024_RDpaindiscrimination_maintask,2023.2.3,59.99682013035118,2024-06-20 11h33.10.626778 -0400,
0,0,0,0,1,0,1,0,,,,,,,,,,,,,205.7192839998752,,,,,,,,205.7052960000001,210.70277839992195,210.70278490008786,210.71925429999828,222.7032221998088,1,inactive,44.5,222.70337870018557,224.6887782998383,19.50000000000007,1.967,222.73610420012847,,,,,,,,,,,,,,,,,,,,,,,,,,,,,,,,,,,,,,sub-044,44.5,43.1,45.1,COM3,2024-06-20_11h32.55.000,2024_RDpaindiscrimination_maintask,2023.2.3,59.99682013035118,2024-06-20 11h33.10.626778 -0400,
0,0,0,0,2,0,2,0,,,,,,,,,,,,,224.70265650004148,,,,,,,,224.68953179987147,229.6862788000144,229.68628499982879,229.70284050004557,241.68672929983586,2,active,43.1,241.68687060009688,244.68789459997788,22.000000000000135,2.982,241.7196160000749,,,,,,,,,,,,,,,,,,,,,,,,,,,,,,,,,,,,,,sub-044,44.5,43.1,45.1,COM3,2024-06-20_11h32.55.000,2024_RDpaindiscrimination_maintask,2023.2.3,59.99682013035118,2024-06-20 11h33.10.626778 -0400,
0,0,0,0,3,0,3,0,,,,,,,,,,,,,244.7028596000746,,,,,,,,244.68875369988382,249.68647440010682,249.68648070003837,249.70299040013924,261.6870468999259,3,inactive,44.5,261.68720829999074,266.571486600209,47.99999999999998,4.865,261.71982409991324,,,,,,,,,,,,,,,,,,,,,,,,,,,,,,,,,,,,,,sub-044,44.5,43.1,45.1,COM3,2024-06-20_11h32.55.000,2024_RDpaindiscrimination_maintask,2023.2.3,59.99682013035118,2024-06-20 11h33.10.626778 -0400,
0,0,0,0,4,0,4,0,,,,,,,,,,,,,266.586600900162,,,,,,,,266.5722639001906,271.5700966999866,271.57010360015556,271.5865441998467,283.57046090019867,0,active,43.1,283.5706016998738,286.40511200018227,9.500000000000133,2.816,283.60336370021105,,,,,,,,,,,,,,,,,,,,,,,,,,,,,,,,,,,,,,sub-044,44.5,43.1,45.1,COM3,2024-06-20_11h32.55.000,2024_RDpaindiscrimination_maintask,2023.2.3,59.99682013035118,2024-06-20 11h33.10.626778 -0400,
0,0,0,0,5,0,5,0,,,,,,,,,,,,,286.4200348001905,,,,,,,,286.40576859982684,291.4035379998386,291.4035446001217,291.42010479979217,303.4040354001336,1,active,43.1,303.4041793998331,306.03845269978046,20.000000000000107,2.615,303.43698510015383,,,,,,,,,,,,,,,,,,,,,,,,,,,,,,,,,,,,,,sub-044,44.5,43.1,45.1,COM3,2024-06-20_11h32.55.000,2024_RDpaindiscrimination_maintask,2023.2.3,59.99682013035118,2024-06-20 11h33.10.626778 -0400,
0,0,0,0,6,0,6,0,,,,,,,,,,,,,306.0535733997822,,,,,,,,306.03924900013953,311.0371095999144,311.03712109988555,311.0537052000873,323.03754069982097,2,inactive,44.5,323.03769430005923,325.1884321998805,33.00000000000003,2.132,323.07046320009977,,,,,,,,,,,,,,,,,,,,,,,,,,,,,,,,,,,,,,sub-044,44.5,43.1,45.1,COM3,2024-06-20_11h32.55.000,2024_RDpaindiscrimination_maintask,2023.2.3,59.99682013035118,2024-06-20 11h33.10.626778 -0400,
0,0,0,0,7,0,7,0,,,,,,,,,,,,,325.20377930020913,,,,,,,,325.1892165997997,330.187319399789,330.18732610018924,330.2038183999248,342.187703399919,3,active,43.1,342.1878484999761,346.42364950012416,20.500000000000078,4.217,342.22060520015657,,,,,,,,,,,,,,,,,,,,,,,,,,,,,,,,,,,,,,sub-044,44.5,43.1,45.1,COM3,2024-06-20_11h32.55.000,2024_RDpaindiscrimination_maintask,2023.2.3,59.99682013035118,2024-06-20 11h33.10.626778 -0400,
0,0,0,0,8,0,8,0,,,,,,,,,,,,,346.4373145001009,,,,,,,,346.42445980012417,351.42088480014354,351.4208912998438,351.4373582000844,363.42131939996034,0,inactive,44.5,363.4214710998349,366.307262300048,14.000000000000004,2.867,363.4541954998858,,,,,,,,,,,,,,,,,,,,,,,,,,,,,,,,,,,,,,sub-044,44.5,43.1,45.1,COM3,2024-06-20_11h32.55.000,2024_RDpaindiscrimination_maintask,2023.2.3,59.99682013035118,2024-06-20 11h33.10.626778 -0400,
0,0,0,0,9,0,9,0,,,,,,,,,,,,,366.3208758002147,,,,,,,,366.308012700174,371.3043277999386,371.3043382000178,371.3208952997811,383.3047341997735,1,active,43.1,383.3048906000331,388.5732924002223,15.500000000000103,5.249,383.3376028998755,,,,,,,,,,,,,,,,,,,,,,,,,,,,,,,,,,,,,,sub-044,44.5,43.1,45.1,COM3,2024-06-20_11h32.55.000,2024_RDpaindiscrimination_maintask,2023.2.3,59.99682013035118,2024-06-20 11h33.10.626778 -0400,
0,0,0,0,10,0,10,0,,,,,,,,,,,,,388.587711900007,,,,,,,,388.5740902000107,393.57129519991577,393.5713017000817,393.58791529992595,405.5717663997784,2,inactive,44.5,405.5719190998934,409.12427970021963,29.500000000000178,3.534,405.604638800025,,,,,,,,,,,,,,,,,,,,,,,,,,,,,,,,,,,,,,sub-044,44.5,43.1,45.1,COM3,2024-06-20_11h32.55.000,2024_RDpaindiscrimination_maintask,2023.2.3,59.99682013035118,2024-06-20 11h33.10.626778 -0400,
0,0,0,0,11,0,11,0,,,,,,,,,,,,,409.13793750014156,,,,,,,,409.1251098001376,414.1215046001598,414.1215114002116,414.1379685997963,426.12187519995496,3,active,43.1,426.1220157002099,428.75719870021567,12.500000000000028,2.616,426.15479640010744,,,,,,,,,,,,,,,,,,,,,,,,,,,,,,,,,,,,,,sub-044,44.5,43.1,45.1,COM3,2024-06-20_11h32.55.000,2024_RDpaindiscrimination_maintask,2023.2.3,59.99682013035118,2024-06-20 11h33.10.626778 -0400,
0,0,0,0,12,0,12,0,,,,,,,,,,,,,428.77138980012387,,,,,,,,428.7579231997952,433.75501890014857,433.7550253998488,433.77154950005934,445.7554346998222,0,active,43.1,445.7555749001913,448.82496479991823,1.5000000000001297,3.003,445.83835410000756,,,,,,,,,,,,,,,,,,,,,,,,,,,,,,,,,,,,,,sub-044,44.5,43.1,45.1,COM3,2024-06-20_11h32.55.000,2024_RDpaindiscrimination_maintask,2023.2.3,59.99682013035118,2024-06-20 11h33.10.626778 -0400,
0,0,0,0,13,0,13,0,,,,,,,,,,,,,448.83830029983073,,,,,,,,448.8257389999926,453.82191949989647,453.82192610017955,453.83835340011865,465.82234580023214,1,inactive,44.5,465.8224973999895,467.90652999980375,34.50000000000006,2.065,465.85524050006643,,,,,,,,,,,,,,,,,,,,,,,,,,,,,,,,,,,,,,sub-044,44.5,43.1,45.1,COM3,2024-06-20_11h32.55.000,2024_RDpaindiscrimination_maintask,2023.2.3,59.99682013035118,2024-06-20 11h33.10.626778 -0400,
0,0,0,0,14,0,14,0,,,,,,,,,,,,,467.92191530019045,,,,,,,,467.90729509992525,472.90546050015837,472.90546730021015,472.92194879986346,484.9058229997754,2,active,43.1,484.9059660998173,488.47444749996066,16.000000000000078,3.55,484.93873840011656,,,,,,,,,,,,,,,,,,,,,,,,,,,,,,,,,,,,,,sub-044,44.5,43.1,45.1,COM3,2024-06-20_11h32.55.000,2024_RDpaindiscrimination_maintask,2023.2.3,59.99682013035118,2024-06-20 11h33.10.626778 -0400,
0,0,0,0,15,0,15,0,,,,,,,,,,,,,488.4887843001634,,,,,,,,488.47522970009595,493.47231050021946,493.4723172998056,493.4888272001408,505.472856500186,3,inactive,44.5,505.47300639981404,508.12669980013743,62.49999999999993,2.634,505.5056674000807,,,,,,,,,,,,,,,,,,,,,,,,,,,,,,,,,,,,,,sub-044,44.5,43.1,45.1,COM3,2024-06-20_11h32.55.000,2024_RDpaindiscrimination_maintask,2023.2.3,59.99682013035118,2024-06-20 11h33.10.626778 -0400,
0,0,0,0,,,,,0,0,0,0,0,0,0,0,,,,,566.2063015000895,,,,,,560.4068746999837,566.1898694001138,,,,,,0,active,44.5,583.1901723002084,593.691393500194,12.5000000000001,10.483,,508.1269004000351,508.13904759986326,560.4064863999374,566.1901743998751,571.1898471000604,571.1898547001183,571.2063354002312,583.2231000000611,583.1901639001444,,,,,,,,,,,,,,,,,,,,,,,,,,,,,sub-044,44.5,43.1,45.1,COM3,2024-06-20_11h32.55.000,2024_RDpaindiscrimination_maintask,2023.2.3,59.99682013035118,2024-06-20 11h33.10.626778 -0400,
0,0,0,0,,,,,0,0,0,0,1,0,1,0,,,,,593.7065278999507,,,,,,,,,,,,,1,inactive,44.5,610.6904477002099,612.8933776002377,36.99999999999994,2.184,,,,,593.6921072998084,598.6900518001057,598.6900578001514,598.7066351999529,610.7232935000211,610.6904400000349,,,,,,,,,,,,,,,,,,,,,,,,,,,,,sub-044,44.5,43.1,45.1,COM3,2024-06-20_11h32.55.000,2024_RDpaindiscrimination_maintask,2023.2.3,59.99682013035118,2024-06-20 11h33.10.626778 -0400,
0,0,0,0,,,,,0,0,0,0,,,,,0,0,0,0,614.573457099963,,,,,,,,,,,,,2,active,,,,,,,,,,,,,,,,612.8938925000839,614.5570474001579,614.557378700003,619.5570363998413,619.5570441000164,619.573425500188,627.5568991000764,627.5568991000764,630.5235486999154,630.5568818999454,630.5568818999454,630.540423499886,3.5,5.3,350,530,8,1.2,0.75,pic-present,1,m,1.4117530002258718,None,,,,,sub-044,44.5,43.1,45.1,COM3,2024-06-20_11h32.55.000,2024_RDpaindiscrimination_maintask,2023.2.3,59.99682013035118,2024-06-20 11h33.10.626778 -0400,
0,0,0,0,,,,,0,0,0,0,,,,,1,0,1,0,630.5568818999454,,,,,,,,,,,,,3,inactive,,,,,,,,,,,,,,,,,,630.5410628998652,635.5404282999225,635.5404353002086,635.5569547000341,643.5403494997881,643.5403494997881,646.507059100084,646.5403837999329,646.5403837999329,646.5239694002084,4.59,4.21,459,421,8,1.2,0.75,pic-absent,0,n,0.5765466000884771,None,,,,,sub-044,44.5,43.1,45.1,COM3,2024-06-20_11h32.55.000,2024_RDpaindiscrimination_maintask,2023.2.3,59.99682013035118,2024-06-20 11h33.10.626778 -0400,
0,0,0,0,,,,,0,0,0,0,,,,,2,0,2,0,646.5403837999329,,,,,,,,,,,,,0,active,,,,,,,,,,,,,,,,,,646.5244288002141,651.5239257998765,651.5239336001687,651.5404290999286,659.5238521997817,659.5238521997817,662.4905396001413,662.5239284001291,662.5239284001291,662.5074008000083,3.63,5.17,363,517,8,1.2,0.75,pic-present,0,n,0.34825919987633824,None,,,,,sub-044,44.5,43.1,45.1,COM3,2024-06-20_11h32.55.000,2024_RDpaindiscrimination_maintask,2023.2.3,59.99682013035118,2024-06-20 11h33.10.626778 -0400,
0,0,0,0,,,,,0,0,0,0,,,,,3,0,3,0,662.5239284001291,,,,,,,,,,,,,1,active,,,,,,,,,,,,,,,,,,662.5078590000048,667.5074816998094,667.5074887000956,667.5239002001472,675.507342999801,675.507342999801,678.4740630998276,678.5073800999671,678.5073800999671,678.490894800052,4.34,4.46,434,446,8,1.2,0.75,pic-present,1,m,0.3571859998628497,None,,,,,sub-044,44.5,43.1,45.1,COM3,2024-06-20_11h32.55.000,2024_RDpaindiscrimination_maintask,2023.2.3,59.99682013035118,2024-06-20 11h33.10.626778 -0400,
0,0,0,0,,,,,1,0,1,0,0,0,0,0,,,,,679.940742299892,,,,,,678.4913881998509,679.9243926000781,,,,,,2,inactive,44.5,696.9246100001037,699.1596037000418,47.50000000000008,2.216,,,,,679.9247141000815,684.9242731002159,684.9242805000395,684.9407836999744,696.9576155999675,696.9246017001569,,,,,,,,,,,,,,,,,,,,,,,,,,,,,sub-044,44.5,43.1,45.1,COM3,2024-06-20_11h32.55.000,2024_RDpaindiscrimination_maintask,2023.2.3,59.99682013035118,2024-06-20 11h33.10.626778 -0400,
0,0,0,0,,,,,1,0,1,0,1,0,1,0,,,,,699.174305099994,,,,,,,,,,,,,3,active,44.5,716.1581846000627,718.9105616998859,34.00000000000016,2.734,,,,,699.1603943998925,704.1578036001883,704.1578100998886,704.174336399883,716.1910772998817,716.1581768002361,,,,,,,,,,,,,,,,,,,,,,,,,,,,,sub-044,44.5,43.1,45.1,COM3,2024-06-20_11h32.55.000,2024_RDpaindiscrimination_maintask,2023.2.3,59.99682013035118,2024-06-20 11h33.10.626778 -0400,
0,0,0,0,,,,,1,0,1,0,,,,,0,0,0,0,719.9911310002208,,,,,,,,,,,,,0,inactive,,,,,,,,,,,,,,,,718.9110515997745,719.9747911999002,719.9751091999933,724.9747423999943,724.9747493001632,724.991250500083,732.9746616999619,732.9746616999619,735.9413618999533,735.974690400064,735.974690400064,735.9581663999707,3.42,5.38,342,538,8,1.2,0.75,pic-absent,0,n,0.36535939993336797,None,,,,,sub-044,44.5,43.1,45.1,COM3,2024-06-20_11h32.55.000,2024_RDpaindiscrimination_maintask,2023.2.3,59.99682013035118,2024-06-20 11h33.10.626778 -0400,
0,0,0,0,,,,,1,0,1,0,,,,,1,0,1,0,735.974690400064,,,,,,,,,,,,,1,active,,,,,,,,,,,,,,,,,,735.9587063998915,740.9582011001185,740.9582079998218,740.9747430998832,748.9581614001654,748.9581614001654,751.9248251998797,751.9581991001032,751.9581991001032,751.941733899992,3.99,4.81,399,480,8,1.2,0.75,pic-present,0,n,0.4225765001028776,None,,,,,sub-044,44.5,43.1,45.1,COM3,2024-06-20_11h32.55.000,2024_RDpaindiscrimination_maintask,2023.2.3,59.99682013035118,2024-06-20 11h33.10.626778 -0400,
0,0,0,0,,,,,1,0,1,0,,,,,2,0,2,0,751.9581991001032,,,,,,,,,,,,,2,active,,,,,,,,,,,,,,,,,,751.9422356002033,756.9417532999068,756.941760700196,756.958247799892,764.9417003002018,764.9417003002018,767.9084056001157,767.9417304000817,767.9417304000817,767.9252455001697,4.48,4.32,448,432,8,1.2,0.75,pic-absent,0,n,0.33849160000681877,None,,,,,sub-044,44.5,43.1,45.1,COM3,2024-06-20_11h32.55.000,2024_RDpaindiscrimination_maintask,2023.2.3,59.99682013035118,2024-06-20 11h33.10.626778 -0400,
0,0,0,0,,,,,1,0,1,0,,,,,3,0,3,0,767.9417304000817,,,,,,,,,,,,,3,inactive,,,,,,,,,,,,,,,,,,767.9257278000005,772.9251937000081,772.9252011999488,772.9416739000008,780.9251787001267,780.9251787001267,783.891909299884,783.9252351000905,783.9252351000905,783.9088034001179,3.68,5.12,368,512,8,1.2,0.75,pic-absent,0,n,0.39484409987926483,None,,,,,sub-044,44.5,43.1,45.1,COM3,2024-06-20_11h32.55.000,2024_RDpaindiscrimination_maintask,2023.2.3,59.99682013035118,2024-06-20 11h33.10.626778 -0400,
0,0,0,0,,,,,2,0,2,0,0,0,0,0,,,,,785.2585903001018,,,,,,783.9092904999852,785.2421316001564,,,,,,0,active,44.5,802.2425731997937,805.3438480999321,6.9999999999999885,3.082,,,,,785.2424536999315,790.2422690000385,790.2422758000903,790.2585971001536,802.275416799821,802.2425647000782,,,,,,,,,,,,,,,,,,,,,,,,,,,,,sub-044,44.5,43.1,45.1,COM3,2024-06-20_11h32.55.000,2024_RDpaindiscrimination_maintask,2023.2.3,59.99682013035118,2024-06-20 11h33.10.626778 -0400,
0,0,0,0,,,,,2,0,2,0,1,0,1,0,,,,,805.358795600012,,,,,,,,,,,,,1,inactive,44.5,822.3427619999275,824.8282523001544,26.000000000000014,2.467,,,,,805.3441631998867,810.3424518997781,810.3424595999531,810.3587716999464,822.3756307000294,822.3427543002181,,,,,,,,,,,,,,,,,,,,,,,,,,,,,sub-044,44.5,43.1,45.1,COM3,2024-06-20_11h32.55.000,2024_RDpaindiscrimination_maintask,2023.2.3,59.99682013035118,2024-06-20 11h33.10.626778 -0400,
0,0,0,0,,,,,2,0,2,0,,,,,0,0,0,0,825.6256657000631,,,,,,,,,,,,,2,inactive,,,,,,,,,,,,,,,,824.8288481999189,825.6092675002292,825.6095866998658,830.6092468998395,830.6092539997771,830.625721400138,838.6091037997976,838.6091037997976,841.5757786999457,841.6090863998979,841.6090863998979,841.5925993998535,4.45,4.35,445,434,8,1.2,0.75,pic-present,1,m,0.358795200008899,None,,,,,sub-044,44.5,43.1,45.1,COM3,2024-06-20_11h32.55.000,2024_RDpaindiscrimination_maintask,2023.2.3,59.99682013035118,2024-06-20 11h33.10.626778 -0400,
0,0,0,0,,,,,2,0,2,0,,,,,1,0,1,0,841.6090863998979,,,,,,,,,,,,,3,active,,,,,,,,,,,,,,,,,,841.5931294998154,846.5927412998863,846.5927482000552,846.6091633001342,854.592648500111,854.592648500111,857.5593383000232,857.5926740998402,857.5926740998402,857.5762462997809,3.91,4.89,391,488,8,1.2,0.75,pic-absent,0,n,0.41601030016317964,None,,,,,sub-044,44.5,43.1,45.1,COM3,2024-06-20_11h32.55.000,2024_RDpaindiscrimination_maintask,2023.2.3,59.99682013035118,2024-06-20 11h33.10.626778 -0400,
0,0,0,0,,,,,2,0,2,0,,,,,2,0,2,0,857.5926740998402,,,,,,,,,,,,,0,inactive,,,,,,,,,,,,,,,,,,857.5767668997869,862.5761889000423,862.5761970002204,862.5926854000427,870.5760995000601,870.5760995000601,873.5428007999435,873.5761373001151,873.5761373001151,873.5596074000932,3.55,5.25,355,525,8,1.2,0.75,pic-present,1,m,0.3317908998578787,None,,,,,sub-044,44.5,43.1,45.1,COM3,2024-06-20_11h32.55.000,2024_RDpaindiscrimination_maintask,2023.2.3,59.99682013035118,2024-06-20 11h33.10.626778 -0400,
0,0,0,0,,,,,2,0,2,0,,,,,3,0,3,0,873.5761373001151,,,,,,,,,,,,,1,inactive,,,,,,,,,,,,,,,,,,873.5600930000655,878.5596750001423,878.5596818001941,878.5761853000149,886.5596321001649,886.5596321001649,889.5262588998303,889.5595208001323,889.5595208001323,889.5430354001,4.45,4.35,445,434,8,1.2,0.75,pic-present,1,m,0.4803247000090778,None,,,,,sub-044,44.5,43.1,45.1,COM3,2024-06-20_11h32.55.000,2024_RDpaindiscrimination_maintask,2023.2.3,59.99682013035118,2024-06-20 11h33.10.626778 -0400,
0,0,0,0,,,,,3,0,3,0,0,0,0,0,,,,,890.0262643001042,,,,,,889.5435156999156,890.009790699929,,,,,,2,inactive,44.5,907.0101385000162,910.1618833001703,25.999999999999986,3.133,,,,,890.0100855999626,895.0098227001727,895.0098294001073,895.0262425001711,907.0430687000044,907.0101302000694,,,,,,,,,,,,,,,,,,,,,,,,,,,,,sub-044,44.5,43.1,45.1,COM3,2024-06-20_11h32.55.000,2024_RDpaindiscrimination_maintask,2023.2.3,59.99682013035118,2024-06-20 11h33.10.626778 -0400,
0,0,0,0,,,,,3,0,3,0,1,0,1,0,,,,,910.1764024998993,,,,,,,,,,,,,3,active,44.5,927.1605396000668,929.6459233998321,24.000000000000092,2.467,,,,,910.1627314002253,915.1599858999252,915.1599929002114,915.1764879999682,927.1933611999266,927.1605317001231,,,,,,,,,,,,,,,,,,,,,,,,,,,,,sub-044,44.5,43.1,45.1,COM3,2024-06-20_11h32.55.000,2024_RDpaindiscrimination_maintask,2023.2.3,59.99682013035118,2024-06-20 11h33.10.626778 -0400,
0,0,0,0,,,,,3,0,3,0,,,,,0,0,0,0,930.0767381000333,,,,,,,,,,,,,0,active,,,,,,,,,,,,,,,,929.646471099928,930.0604187999852,930.0607274998911,935.0602540001273,935.0602605999447,935.0767264999449,943.0602855999023,943.0602855999023,946.0269332001917,946.0602715001442,946.0602715001442,946.0437437999062,4.14,4.66,413,466,8,1.2,0.75,pic-absent,0,n,0.36041870014742017,None,,,,,sub-044,44.5,43.1,45.1,COM3,2024-06-20_11h32.55.000,2024_RDpaindiscrimination_maintask,2023.2.3,59.99682013035118,2024-06-20 11h33.10.626778 -0400,
0,0,0,0,,,,,3,0,3,0,,,,,1,0,1,0,946.0602715001442,,,,,,,,,,,,,1,inactive,,,,,,,,,,,,,,,,,,946.0442967000417,951.0437750001438,951.0437823999673,951.0602214001119,959.0436350000091,959.0436350000091,962.0103430999443,962.043681900017,962.043681900017,962.0271708001383,4.07,4.73,407,473,8,1.2,0.75,pic-present,0,n,0.36811000015586615,None,,,,,sub-044,44.5,43.1,45.1,COM3,2024-06-20_11h32.55.000,2024_RDpaindiscrimination_maintask,2023.2.3,59.99682013035118,2024-06-20 11h33.10.626778 -0400,
0,0,0,0,,,,,3,0,3,0,,,,,2,0,2,0,962.043681900017,,,,,,,,,,,,,2,inactive,,,,,,,,,,,,,,,,,,962.0276227002032,967.027303900104,967.0273111998104,967.0437253001146,975.027148200199,975.027148200199,977.9938505999744,978.027218000032,978.027218000032,978.0106771998107,4.28,4.52,428,451,8,1.2,0.75,pic-absent,1,m,0.32857519993558526,None,,,,,sub-044,44.5,43.1,45.1,COM3,2024-06-20_11h32.55.000,2024_RDpaindiscrimination_maintask,2023.2.3,59.99682013035118,2024-06-20 11h33.10.626778 -0400,
0,0,0,0,,,,,3,0,3,0,,,,,3,0,3,0,978.027218000032,,,,,,,,,,,,,3,active,,,,,,,,,,,,,,,,,,978.0111332000233,983.0107460999861,983.010753700044,983.027219099924,991.0106751997955,991.0106751997955,993.9773761001416,994.0106151998043,994.0106151998043,993.9941901001148,4.28,4.52,428,451,8,1.2,0.75,pic-absent,0,n,0.43383909994736314,None,,,,,sub-044,44.5,43.1,45.1,COM3,2024-06-20_11h32.55.000,2024_RDpaindiscrimination_maintask,2023.2.3,59.99682013035118,2024-06-20 11h33.10.626778 -0400,
1,0,1,0,0,0,0,0,,,,,,,,,,,,,1063.328163499944,,,,1062.5452577001415,1062.8783057997935,1062.8783124000765,1063.3116307999007,1063.311943499837,1068.3116442998871,1068.3116513998248,1068.3281263001263,1080.3120494000614,0,active,43.1,1080.3122634999454,1084.2809076001868,7.5000000000002025,3.946,1080.3448645998724,,,,,,,,,,,,,,,,,,,,,,,,,,,,,,,,,,993.994619899895,1062.545129199978,,,sub-044,44.5,43.1,45.1,COM3,2024-06-20_11h32.55.000,2024_RDpaindiscrimination_maintask,2023.2.3,59.99682013035118,2024-06-20 11h33.10.626778 -0400,
1,0,1,0,1,0,1,0,,,,,,,,,,,,,1084.2949704001658,,,,,,,,1084.2817326998338,1089.278569799848,1089.2785763000138,1089.2950141998008,1101.2789675001986,1,inactive,44.5,1101.2791133997962,1104.2143953000195,30.000000000000178,2.916,1101.311808399856,,,,,,,,,,,,,,,,,,,,,,,,,,,,,,,,,,,,,,sub-044,44.5,43.1,45.1,COM3,2024-06-20_11h32.55.000,2024_RDpaindiscrimination_maintask,2023.2.3,59.99682013035118,2024-06-20 11h33.10.626778 -0400,
1,0,1,0,2,0,2,0,,,,,,,,,,,,,1104.2285063001327,,,,,,,,1104.2152023999952,1109.2120489999652,1109.2120556998998,1109.2285950998776,1121.2124820002355,2,active,43.1,1121.2126251999289,1124.614023400005,16.000000000000078,3.383,1121.2453454998322,,,,,,,,,,,,,,,,,,,,,,,,,,,,,,,,,,,,,,sub-044,44.5,43.1,45.1,COM3,2024-06-20_11h32.55.000,2024_RDpaindiscrimination_maintask,2023.2.3,59.99682013035118,2024-06-20 11h33.10.626778 -0400,
1,0,1,0,3,0,3,0,,,,,,,,,,,,,1124.628744599875,,,,,,,,1124.6148589998484,1129.612260099966,1129.6122665000148,1129.6287643001415,1141.6126656001434,3,active,43.1,1141.6128079998307,1144.8986869999208,3.0000000000001648,3.267,1141.6455572000705,,,,,,,,,,,,,,,,,,,,,,,,,,,,,,,,,,,,,,sub-044,44.5,43.1,45.1,COM3,2024-06-20_11h32.55.000,2024_RDpaindiscrimination_maintask,2023.2.3,59.99682013035118,2024-06-20 11h33.10.626778 -0400,
1,0,1,0,4,0,4,0,,,,,,,,,,,,,1144.9123208001256,,,,,,,,1144.8995452998206,1149.8958709998988,1149.8958776998334,1149.912307200022,1161.8963354998268,0,inactive,44.5,1161.8964868998155,1163.597512200009,17.000000000000032,1.682,1161.9291690001264,,,,,,,,,,,,,,,,,,,,,,,,,,,,,,,,,,,,,,sub-044,44.5,43.1,45.1,COM3,2024-06-20_11h32.55.000,2024_RDpaindiscrimination_maintask,2023.2.3,59.99682013035118,2024-06-20 11h33.10.626778 -0400,
1,0,1,0,5,0,5,0,,,,,,,,,,,,,1163.6125006000511,,,,,,,,1163.5983394999057,1168.596007999964,1168.59601450013,1168.612550499849,1180.5964343999512,1,active,43.1,1180.5965885999613,1182.7482413998805,17.000000000000103,2.133,1180.629329400137,,,,,,,,,,,,,,,,,,,,,,,,,,,,,,,,,,,,,,sub-044,44.5,43.1,45.1,COM3,2024-06-20_11h32.55.000,2024_RDpaindiscrimination_maintask,2023.2.3,59.99682013035118,2024-06-20 11h33.10.626778 -0400,
1,0,1,0,6,0,6,0,,,,,,,,,,,,,1182.7626577001065,,,,,,,,1182.74903849978,1187.746207400225,1187.7462141001597,1187.7627159999683,1199.746733999811,2,inactive,44.5,1199.7468920000829,1201.8306684000418,26.499999999999986,2.065,1199.779486599844,,,,,,,,,,,,,,,,,,,,,,,,,,,,,,,,,,,,,,sub-044,44.5,43.1,45.1,COM3,2024-06-20_11h32.55.000,2024_RDpaindiscrimination_maintask,2023.2.3,59.99682013035118,2024-06-20 11h33.10.626778 -0400,
1,0,1,0,7,0,7,0,,,,,,,,,,,,,1201.8461567000486,,,,,,,,1201.8317419998348,1206.829909699969,1206.8299163999036,1206.846301900223,1218.8302278001793,3,active,43.1,1218.830372299999,1221.0816534999758,15.000000000000068,2.232,1218.863096400164,,,,,,,,,,,,,,,,,,,,,,,,,,,,,,,,,,,,,,sub-044,44.5,43.1,45.1,COM3,2024-06-20_11h32.55.000,2024_RDpaindiscrimination_maintask,2023.2.3,59.99682013035118,2024-06-20 11h33.10.626778 -0400,
1,0,1,0,8,0,8,0,,,,,,,,,,,,,1221.0963550000452,,,,,,,,1221.0818851999938,1226.079906700179,1226.0799132999964,1226.0964398002252,1238.0803860002197,0,inactive,44.5,1238.0805274997838,1240.333142099902,30.000000000000107,2.234,1238.113195199985,,,,,,,,,,,,,,,,,,,,,,,,,,,,,,,,,,,,,,sub-044,44.5,43.1,45.1,COM3,2024-06-20_11h32.55.000,2024_RDpaindiscrimination_maintask,2023.2.3,59.99682013035118,2024-06-20 11h33.10.626778 -0400,
1,0,1,0,9,0,9,0,,,,,,,,,,,,,1240.3465526998043,,,,,,,,1240.3338886001147,1245.3301232000813,1245.330130300019,1245.3466103998944,1257.3306477000006,1,inactive,44.5,1257.3307900000364,1258.7830448001623,22.00000000000003,1.433,1257.363445899915,,,,,,,,,,,,,,,,,,,,,,,,,,,,,,,,,,,,,,sub-044,44.5,43.1,45.1,COM3,2024-06-20_11h32.55.000,2024_RDpaindiscrimination_maintask,2023.2.3,59.99682013035118,2024-06-20 11h33.10.626778 -0400,
1,0,1,0,10,0,10,0,,,,,,,,,,,,,1258.7968704001978,,,,,,,,1258.7838578000665,1263.7804212002084,1263.7804280999117,1263.7969198999926,1275.7808158001862,2,active,43.1,1275.7809649999253,1279.1991365998983,6.000000000000165,3.4,1275.813707599882,,,,,,,,,,,,,,,,,,,,,,,,,,,,,,,,,,,,,,sub-044,44.5,43.1,45.1,COM3,2024-06-20_11h32.55.000,2024_RDpaindiscrimination_maintask,2023.2.3,59.99682013035118,2024-06-20 11h33.10.626778 -0400,
1,0,1,0,11,0,11,0,,,,,,,,,,,,,1279.2137096999213,,,,,,,,1279.1999377999455,1284.1972949001938,1284.1973012001254,1284.21380090015,1296.1978533999063,3,inactive,44.5,1296.1979979001917,1298.2492324002087,28.49999999999997,2.033,1296.230586799793,,,,,,,,,,,,,,,,,,,,,,,,,,,,,,,,,,,,,,sub-044,44.5,43.1,45.1,COM3,2024-06-20_11h32.55.000,2024_RDpaindiscrimination_maintask,2023.2.3,59.99682013035118,2024-06-20 11h33.10.626778 -0400,
1,0,1,0,12,0,12,0,,,,,,,,,,,,,1298.2639436000027,,,,,,,,1298.2500448999926,1303.2475769999437,1303.2475835001096,1303.2639787001535,1315.247897400055,0,active,43.1,1315.248040500097,1318.5336374999024,8.500000000000131,3.267,1315.2807946000248,,,,,,,,,,,,,,,,,,,,,,,,,,,,,,,,,,,,,,sub-044,44.5,43.1,45.1,COM3,2024-06-20_11h32.55.000,2024_RDpaindiscrimination_maintask,2023.2.3,59.99682013035118,2024-06-20 11h33.10.626778 -0400,
1,0,1,0,13,0,13,0,,,,,,,,,,,,,1318.547424999997,,,,,,,,1318.534347599838,1323.5310207000002,1323.5310277999379,1323.5475622001104,1335.5313540999778,1,active,43.1,1335.531500800047,1337.6509933997877,21.5000000000001,2.015,1335.6476427000016,,,,,,,,,,,,,,,,,,,,,,,,,,,,,,,,,,,,,,sub-044,44.5,43.1,45.1,COM3,2024-06-20_11h32.55.000,2024_RDpaindiscrimination_maintask,2023.2.3,59.99682013035118,2024-06-20 11h33.10.626778 -0400,
1,0,1,0,14,0,14,0,,,,,,,,,,,,,1337.664241900202,,,,,,,,1337.6518358998,1342.6477870000526,1342.6477932999842,1342.6642959001474,1354.648222300224,2,inactive,44.5,1354.6483708000742,1356.4167200000957,24.999999999999993,1.749,1354.681074200198,,,,,,,,,,,,,,,,,,,,,,,,,,,,,,,,,,,,,,sub-044,44.5,43.1,45.1,COM3,2024-06-20_11h32.55.000,2024_RDpaindiscrimination_maintask,2023.2.3,59.99682013035118,2024-06-20 11h33.10.626778 -0400,
1,0,1,0,15,0,15,0,,,,,,,,,,,,,1356.431125300005,,,,,,,,1356.4174798000604,1361.4146981998347,1361.4147051000036,1361.4312563999556,1373.415190000087,3,inactive,44.5,1373.4153296002187,1375.5832143998705,23.000000000000096,2.149,1373.448062099982,,,,,,,,,,,,,,,,,,,,,,,,,,,,,,,,,,,,,,sub-044,44.5,43.1,45.1,COM3,2024-06-20_11h32.55.000,2024_RDpaindiscrimination_maintask,2023.2.3,59.99682013035118,2024-06-20 11h33.10.626778 -0400,
1,0,1,0,,,,,0,0,0,0,0,0,0,0,,,,,1387.148080300074,,,,,,1386.9653981002048,1387.1317134001292,,,,,,0,inactive,44.5,1404.1320487000048,1405.5839066999033,10.499999999999991,1.433,,1375.5837781000882,1375.5981192002073,1386.9650670001283,1387.1319729997776,1392.1316565000452,1392.1316634002142,1392.1481021000072,1404.164901100099,1404.1320402999409,,,,,,,,,,,,,,,,,,,,,,,,,,,,,sub-044,44.5,43.1,45.1,COM3,2024-06-20_11h32.55.000,2024_RDpaindiscrimination_maintask,2023.2.3,59.99682013035118,2024-06-20 11h33.10.626778 -0400,
1,0,1,0,,,,,0,0,0,0,1,0,1,0,,,,,1405.5982793997973,,,,,,,,,,,,,1,active,44.5,1422.5822654999793,1424.4164605000988,22.50000000000003,1.816,,,,,1405.5841482002288,1410.5818320000544,1410.5818385998718,1410.5984057998285,1422.615133000072,1422.5822553001344,,,,,,,,,,,,,,,,,,,,,,,,,,,,,sub-044,44.5,43.1,45.1,COM3,2024-06-20_11h32.55.000,2024_RDpaindiscrimination_maintask,2023.2.3,59.99682013035118,2024-06-20 11h33.10.626778 -0400,
1,0,1,0,,,,,0,0,0,0,,,,,0,0,0,0,1425.0984899001196,,,,,,,,,,,,,2,inactive,,,,,,,,,,,,,,,,1424.416985699907,1425.0821394999512,1425.082447099965,1430.08203099994,1430.0820379001088,1430.0986386002041,1438.0819570999593,1438.0819570999593,1441.0486599002033,1441.0820630001836,1441.0820630001836,1441.0655058999546,4.32,4.48,432,448,8,1.2,0.75,pic-present,1,m,0.4252537996508181,None,,,,,sub-044,44.5,43.1,45.1,COM3,2024-06-20_11h32.55.000,2024_RDpaindiscrimination_maintask,2023.2.3,59.99682013035118,2024-06-20 11h33.10.626778 -0400,
1,0,1,0,,,,,0,0,0,0,,,,,1,0,1,0,1441.0820630001836,,,,,,,,,,,,,3,inactive,,,,,,,,,,,,,,,,,,1441.066060999874,1446.0655425000004,1446.0655497000553,1446.0821150001138,1454.0654930998571,1454.0654930998571,1457.0321940998547,1457.0655213999562,1457.0655213999562,1457.0490302001126,3.89,4.91,389,491,8,1.2,0.75,pic-absent,0,n,0.38636810006573796,None,,,,,sub-044,44.5,43.1,45.1,COM3,2024-06-20_11h32.55.000,2024_RDpaindiscrimination_maintask,2023.2.3,59.99682013035118,2024-06-20 11h33.10.626778 -0400,
1,0,1,0,,,,,0,0,0,0,,,,,2,0,2,0,1457.0655213999562,,,,,,,,,,,,,0,active,,,,,,,,,,,,,,,,,,1457.049518799875,1462.0490704001859,1462.0490776998922,1462.0655753999017,1470.0490561001934,1470.0490561001934,1473.0156890000217,1473.0490212999284,1473.0490212999284,1473.0325898998417,4.26,4.54,426,454,8,1.2,0.75,pic-absent,0,n,0.3508846000768244,None,,,,,sub-044,44.5,43.1,45.1,COM3,2024-06-20_11h32.55.000,2024_RDpaindiscrimination_maintask,2023.2.3,59.99682013035118,2024-06-20 11h33.10.626778 -0400,
1,0,1,0,,,,,0,0,0,0,,,,,3,0,3,0,1473.0490212999284,,,,,,,,,,,,,1,inactive,,,,,,,,,,,,,,,,,,1473.033109200187,1478.0325616998598,1478.0325687997974,1478.0490900999866,1486.0324972001836,1486.0324972001836,1488.999226800166,1489.032529800199,1489.032529800199,1489.0160396001302,3.56,5.24,356,524,8,1.2,0.75,pic-present,0,n,0.36329380003735423,None,,,,,sub-044,44.5,43.1,45.1,COM3,2024-06-20_11h32.55.000,2024_RDpaindiscrimination_maintask,2023.2.3,59.99682013035118,2024-06-20 11h33.10.626778 -0400,
1,0,1,0,,,,,1,0,1,0,0,0,0,0,,,,,1489.6825411999598,,,,,,1489.0165511998348,1489.6661165999249,,,,,,2,active,44.5,1506.666419699788,1509.9351119999774,22.50000000000017,3.25,,,,,1489.6664241999388,1494.666071999818,1494.666079199873,1494.6825772998855,1506.699381500017,1506.6664110999554,,,,,,,,,,,,,,,,,,,,,,,,,,,,,sub-044,44.5,43.1,45.1,COM3,2024-06-20_11h32.55.000,2024_RDpaindiscrimination_maintask,2023.2.3,59.99682013035118,2024-06-20 11h33.10.626778 -0400,
1,0,1,0,,,,,1,0,1,0,1,0,1,0,,,,,1509.9494107998908,,,,,,,,,,,,,3,inactive,44.5,1526.9333647000603,1529.419399799779,30.000000000000036,2.467,,,,,1509.9359133997932,1514.932932099793,1514.932939299848,1514.9494917001575,1526.9662309000269,1526.9333561002277,,,,,,,,,,,,,,,,,,,,,,,,,,,,,sub-044,44.5,43.1,45.1,COM3,2024-06-20_11h32.55.000,2024_RDpaindiscrimination_maintask,2023.2.3,59.99682013035118,2024-06-20 11h33.10.626778 -0400,
1,0,1,0,,,,,1,0,1,0,,,,,0,0,0,0,1530.3328960998915,,,,,,,,,,,,,0,active,,,,,,,,,,,,,,,,1529.4199176002294,1530.316629699897,1530.3169555999339,1535.3164873002097,1535.316494599916,1535.3330152002163,1543.3163994001225,1543.3163994001225,1546.2830917998217,1546.3164295000024,1546.3164295000024,1546.2999118999578,4.29,4.51,429,451,8,1.2,0.75,pic-present,None,None,,,,,,,sub-044,44.5,43.1,45.1,COM3,2024-06-20_11h32.55.000,2024_RDpaindiscrimination_maintask,2023.2.3,59.99682013035118,2024-06-20 11h33.10.626778 -0400,
1,0,1,0,,,,,1,0,1,0,,,,,1,0,1,0,1546.3164295000024,,,,,,,,,,,,,1,active,,,,,,,,,,,,,,,,,,1546.3003793000244,1551.2999765998684,1551.2999836001545,1551.316473999992,1559.2998938998207,1559.2998938998207,1562.266621499788,1562.2999184001237,1562.2999184001237,1562.283440100029,3.83,4.97,383,497,8,1.2,0.75,pic-absent,1,m,0.2553364001214504,None,,,,,sub-044,44.5,43.1,45.1,COM3,2024-06-20_11h32.55.000,2024_RDpaindiscrimination_maintask,2023.2.3,59.99682013035118,2024-06-20 11h33.10.626778 -0400,
1,0,1,0,,,,,1,0,1,0,,,,,2,0,2,0,1562.2999184001237,,,,,,,,,,,,,2,inactive,,,,,,,,,,,,,,,,,,1562.2839370998554,1567.2834800002165,1567.2834875001572,1567.299978400115,1575.283431199845,1575.283431199845,1578.250135099981,1578.2834859997965,1578.2834859997965,1578.2669839998707,3.95,4.85,395,484,8,1.2,0.75,pic-present,0,n,0.3116413000971079,None,,,,,sub-044,44.5,43.1,45.1,COM3,2024-06-20_11h32.55.000,2024_RDpaindiscrimination_maintask,2023.2.3,59.99682013035118,2024-06-20 11h33.10.626778 -0400,
1,0,1,0,,,,,1,0,1,0,,,,,3,0,3,0,1578.2834859997965,,,,,,,,,,,,,3,active,,,,,,,,,,,,,,,,,,1578.2674843999557,1583.2670081001706,1583.267015399877,1583.2835192000493,1591.2669203002006,1591.2669203002006,1594.2336750999093,1594.2669648001902,1594.2669648001902,1594.2504707998596,3.65,5.15,365,515,8,1.2,0.75,pic-absent,0,n,0.8888020003214478,None,,,,,sub-044,44.5,43.1,45.1,COM3,2024-06-20_11h32.55.000,2024_RDpaindiscrimination_maintask,2023.2.3,59.99682013035118,2024-06-20 11h33.10.626778 -0400,
1,0,1,0,,,,,2,0,2,0,0,0,0,0,,,,,1607.6005033999681,,,,,,1594.2509877001867,1607.5840410999954,,,,,,0,inactive,44.5,1624.5844581997953,1627.8523495001718,31.000000000000174,3.249,,,,,1607.5843556998298,1612.5840358999558,1612.5840428001247,1612.60049529979,1624.6172878001817,1624.584449000191,,,,,,,,,,,,,,,,,,,,,,,,,,,,,sub-044,44.5,43.1,45.1,COM3,2024-06-20_11h32.55.000,2024_RDpaindiscrimination_maintask,2023.2.3,59.99682013035118,2024-06-20 11h33.10.626778 -0400,
1,0,1,0,,,,,2,0,2,0,1,0,1,0,,,,,1627.8674062998034,,,,,,,,,,,,,1,active,44.5,1644.8512190999463,1648.0526689998806,29.00000000000011,3.183,,,,,1627.8531439001672,1632.850976599846,1632.8509837999009,1632.8673816001974,1644.8842397001572,1644.8512110998854,,,,,,,,,,,,,,,,,,,,,,,,,,,,,sub-044,44.5,43.1,45.1,COM3,2024-06-20_11h32.55.000,2024_RDpaindiscrimination_maintask,2023.2.3,59.99682013035118,2024-06-20 11h33.10.626778 -0400,
1,0,1,0,,,,,2,0,2,0,,,,,0,0,0,0,1648.5675642997958,,,,,,,,,,,,,2,active,,,,,,,,,,,,,,,,1648.0532530001365,1648.5512218000367,1648.5515445000492,1653.551070800051,1653.5510823000222,1653.567619100213,1661.551049100235,1661.551049100235,1664.5177660998888,1664.5510785002261,1664.5510785002261,1664.5345902000554,4.05,4.75,405,475,8,1.2,0.75,pic-absent,0,n,1.0160342999733984,None,,,,,sub-044,44.5,43.1,45.1,COM3,2024-06-20_11h32.55.000,2024_RDpaindiscrimination_maintask,2023.2.3,59.99682013035118,2024-06-20 11h33.10.626778 -0400,
1,0,1,0,,,,,2,0,2,0,,,,,1,0,1,0,1664.5510785002261,,,,,,,,,,,,,3,inactive,,,,,,,,,,,,,,,,,,1664.5351018002257,1669.5346393999644,1669.5346462000161,1669.551113099791,1677.5345756998286,1677.5345756998286,1680.5011943997815,1680.5345037998632,1680.5345037998632,1680.5180138000287,3.69,5.11,369,511,8,1.2,0.75,pic-present,1,m,0.5571270999498665,None,,,,,sub-044,44.5,43.1,45.1,COM3,2024-06-20_11h32.55.000,2024_RDpaindiscrimination_maintask,2023.2.3,59.99682013035118,2024-06-20 11h33.10.626778 -0400,
1,0,1,0,,,,,2,0,2,0,,,,,2,0,2,0,1680.5345037998632,,,,,,,,,,,,,0,inactive,,,,,,,,,,,,,,,,,,1680.518508899957,1685.5180493998341,1685.518056599889,1685.5345890000463,1693.5179722001776,1693.5179722001776,1696.484682700131,1696.5180020001717,1696.5180020001717,1696.5015177000314,3.47,5.33,347,533,8,1.2,0.75,pic-absent,0,n,0.33350379997864366,None,,,,,sub-044,44.5,43.1,45.1,COM3,2024-06-20_11h32.55.000,2024_RDpaindiscrimination_maintask,2023.2.3,59.99682013035118,2024-06-20 11h33.10.626778 -0400,
1,0,1,0,,,,,2,0,2,0,,,,,3,0,3,0,1696.5180020001717,,,,,,,,,,,,,1,active,,,,,,,,,,,,,,,,,,1696.5019983001985,1701.5015933001414,1701.5016005998477,1701.5180560001172,1709.501472900156,1709.501472900156,1712.4682358000427,1712.5015012999065,1712.5015012999065,1712.485032599885,4.56,4.24,455,424,8,1.2,0.75,pic-present,1,m,0.38971739960834384,None,,,,,sub-044,44.5,43.1,45.1,COM3,2024-06-20_11h32.55.000,2024_RDpaindiscrimination_maintask,2023.2.3,59.99682013035118,2024-06-20 11h33.10.626778 -0400,
1,0,1,0,,,,,3,0,3,0,0,0,0,0,,,,,1713.0181760000996,,,,,,1712.4855081001297,1713.0018461998552,,,,,,2,active,44.5,1730.0022058999166,1732.6702419999056,20.500000000000142,2.649,,,,,1713.002152199857,1718.001805299893,1718.0018120999448,1718.0182603001595,1730.0350478999317,1730.002197000198,,,,,,,,,,,,,,,,,,,,,,,,,,,,,sub-044,44.5,43.1,45.1,COM3,2024-06-20_11h32.55.000,2024_RDpaindiscrimination_maintask,2023.2.3,59.99682013035118,2024-06-20 11h33.10.626778 -0400,
1,0,1,0,,,,,3,0,3,0,1,0,1,0,,,,,1732.685078700073,,,,,,,,,,,,,3,inactive,44.5,1749.6689245002344,1751.5717310998589,30.0,1.883,,,,,1732.6710219997913,1737.6686221999116,1737.6686292001978,1737.6851308001205,1749.7019668999128,1749.6689165001735,,,,,,,,,,,,,,,,,,,,,,,,,,,,,sub-044,44.5,43.1,45.1,COM3,2024-06-20_11h32.55.000,2024_RDpaindiscrimination_maintask,2023.2.3,59.99682013035118,2024-06-20 11h33.10.626778 -0400,
1,0,1,0,,,,,3,0,3,0,,,,,0,0,0,0,1753.0686758002266,,,,,,,,,,,,,0,inactive,,,,,,,,,,,,,,,,1751.5722765000537,1753.0522150998004,1753.0525348000228,1758.0522154998034,1758.0522221000865,1758.0686802999116,1766.0521941999905,1766.0521941999905,1769.0188017999753,1769.0521571999416,1769.0521571999416,1769.035610999912,3.33,5.47,333,547,8,1.2,0.75,pic-absent,0,n,0.322579899802804,None,,,,,sub-044,44.5,43.1,45.1,COM3,2024-06-20_11h32.55.000,2024_RDpaindiscrimination_maintask,2023.2.3,59.99682013035118,2024-06-20 11h33.10.626778 -0400,
1,0,1,0,,,,,3,0,3,0,,,,,1,0,1,0,1769.0521571999416,,,,,,,,,,,,,1,active,,,,,,,,,,,,,,,,,,1769.0361676001921,1774.0356442998163,1774.0356514998712,1774.052151300013,1782.035616000183,1782.035616000183,1785.0023850998841,1785.035724400077,1785.035724400077,1785.0192916002125,4.26,4.54,426,454,8,1.2,0.75,pic-present,1,m,0.33200740022584796,None,,,,,sub-044,44.5,43.1,45.1,COM3,2024-06-20_11h32.55.000,2024_RDpaindiscrimination_maintask,2023.2.3,59.99682013035118,2024-06-20 11h33.10.626778 -0400,
1,0,1,0,,,,,3,0,3,0,,,,,2,0,2,0,1785.035724400077,,,,,,,,,,,,,2,active,,,,,,,,,,,,,,,,,,1785.0197558999062,1790.0192698999308,1790.0192774999887,1790.0357781001367,1798.0191911999136,1798.0191911999136,1800.9858209001832,1801.0190913998522,1801.0190913998522,1801.0026087001897,4.54,4.26,454,426,8,1.2,0.75,pic-present,1,m,0.3403566996566951,None,,,,,sub-044,44.5,43.1,45.1,COM3,2024-06-20_11h32.55.000,2024_RDpaindiscrimination_maintask,2023.2.3,59.99682013035118,2024-06-20 11h33.10.626778 -0400,
1,0,1,0,,,,,3,0,3,0,,,,,3,0,3,0,1801.0190913998522,,,,,,,,,,,,,3,inactive,,,,,,,,,,,,,,,,,,1801.003064900171,1806.0026663998142,1806.0026736999862,1806.0191473001614,1814.0026881000958,1814.0026881000958,1816.9692660998553,1817.0026102000847,1817.0026102000847,1816.9861192000099,3.81,4.99,381,499,8,1.2,0.75,pic-absent,0,n,0.3961888998746872,None,,,,,sub-044,44.5,43.1,45.1,COM3,2024-06-20_11h32.55.000,2024_RDpaindiscrimination_maintask,2023.2.3,59.99682013035118,2024-06-20 11h33.10.626778 -0400,
,,,,,,,,,,,,,,,,,,,,,,,,,,,,,,,,,,,,,,,,,,,,,,,,,,,,,,,,,,,,,,,,,,,,,,,,,,1816.9865410001948,1819.6864233999513,1819.6864455998875,1829.6864168001339,,,,,,,,,,,
