trials.thisRepN,trials.thisTrialN,trials.thisN,trials.thisIndex,loop_test.thisRepN,loop_test.thisTrialN,loop_test.thisN,loop_test.thisIndex,loop_eval_discri.thisRepN,loop_eval_discri.thisTrialN,loop_eval_discri.thisN,loop_eval_discri.thisIndex,loop_eval.thisRepN,loop_eval.thisTrialN,loop_eval.thisN,loop_eval.thisIndex,loop_discri.thisRepN,loop_discri.thisTrialN,loop_discri.thisN,loop_discri.thisIndex,thisRow.t,notes,Set_up.started,Set_up.stopped,electrode_check.started,electrode_check.stopped,instructions_eval.started,instructions_eval.stopped,pause_5_test.started,pause_5_test.stopped,Phase_Test.started,thermode_locali.started,thermode_locali.stopped,Phase_Test.stopped,loca_thermode,condition,temp_trial_sent,eval_douleur.started,eval_douleur.stopped,ratingScale.response,ratingScale.rt,Fin_test.started,text.started,Fin_test.stopped,pause_5_EVA.started,pause_5_EVA.stopped,tâche_EVA.started,thermode_locali_EVA.started,tâche_EVA.stopped,thermode_locali_EVA.stopped,instructions_discrim.started,instructions_discrim.stopped,pause_5_pic.started,pause_5_pic.stopped,tâche_PIC.started,thermode_locali_pic.started,percu_or.started,responser.started,thermode_locali_pic.stopped,percu_or.stopped,responser.stopped,tâche_PIC.stopped,dur_plateau1,dur_plateau2,dur_plateau1_sent,dur_plateau2_sent,start_plateau_2_resp,dur_pic,dur_rise,pic_presence,pic_response,discrimin_resp.keys,discrimin_resp.rt,discrimin_resp.duration,break_entre_bloc.started,break_entre_bloc.stopped,merci.started,merci.stopped,participant,temp_flat,temp_active,temp_pic_set,com_thermode,date,expName,psychopyVersion,frameRate,expStart,
0,0,0,0,0,0,0,0,,,,,,,,,,,,,94.51732320000883,,0.016366299998480827,83.31757470000593,83.31794269999955,86.18424120001146,86.1842495000019,94.50097780000942,94.50126540000201,99.50090980000095,99.50091640000755,99.51744480000343,111.5342304000078,111.50139470001159,0,inactive,48.7,111.50140180000744,115.13728229999833,6.500000000000094,3.613,,,,,,,,,,,,,,,,,,,,,,,,,,,,,,,,,,,,,,sub-010,48.7,47.0,49.5,COM3,2024-01-30_15h06.39.033,2024_RDpaindiscrimination_maintask,2023.2.3,60.01006968952248,2024-01-30 15h07.04.505044 -0500,
0,0,0,0,1,0,1,0,,,,,,,,,,,,,115.15102370000386,,,,,,,,115.13828260000446,120.13459070000681,120.13459750000038,120.15110840000852,132.1679063000047,132.13500690000365,1,inactive,48.7,132.13501430000179,135.78765730001032,12.500000000000206,3.634,,,,,,,,,,,,,,,,,,,,,,,,,,,,,,,,,,,,,,sub-010,48.7,47.0,49.5,COM3,2024-01-30_15h06.39.033,2024_RDpaindiscrimination_maintask,2023.2.3,60.01006968952248,2024-01-30 15h07.04.505044 -0500,
0,0,0,0,2,0,2,0,,,,,,,,,,,,,135.80130750000535,,,,,,,,135.78845180000644,140.78484310000204,140.78484960000787,140.80128670000704,152.81809330001124,152.7851825000107,2,active,48.7,152.78518960000656,155.01959010001156,3.4999999999999876,2.216,,,,,,,,,,,,,,,,,,,,,,,,,,,,,,,,,,,,,,sub-010,48.7,47.0,49.5,COM3,2024-01-30_15h06.39.033,2024_RDpaindiscrimination_maintask,2023.2.3,60.01006968952248,2024-01-30 15h07.04.505044 -0500,
0,0,0,0,3,0,3,0,,,,,,,,,,,,,155.0348251000105,,,,,,,,155.02034250000725,160.01840490000905,160.0184115000011,160.06822660000762,,172.03504129999783,3,active,48.7,172.0350480000052,174.70388390000153,4.4999999999999964,2.65,,,,,,,,,,,,,,,,,,,,,,,,,,,,,,,,,,,,,,sub-010,48.7,47.0,49.5,COM3,2024-01-30_15h06.39.033,2024_RDpaindiscrimination_maintask,2023.2.3,60.01006968952248,2024-01-30 15h07.04.505044 -0500,
0,0,0,0,4,0,4,0,,,,,,,,,,,,,174.71840310000698,,,,,,,,174.70416740000655,179.70193740000832,179.70194340001035,179.71842980000656,191.73519600000873,191.70237530001032,0,inactive,48.7,191.70238200000313,195.3549151000043,18.000000000000078,3.634,,,,,,,,,,,,,,,,,,,,,,,,,,,,,,,,,,,,,,sub-010,48.7,47.0,49.5,COM3,2024-01-30_15h06.39.033,2024_RDpaindiscrimination_maintask,2023.2.3,60.01006968952248,2024-01-30 15h07.04.505044 -0500,
0,0,0,0,5,0,5,0,,,,,,,,,,,,,195.36861250000948,,,,,,,,195.35566790000303,200.35215880000032,200.35216500000388,200.36866659999941,212.38546230000793,212.35257699999784,1,active,48.7,212.35258430000977,215.6862584000046,4.000000000000093,3.314,,,,,,,,,,,,,,,,,,,,,,,,,,,,,,,,,,,,,,sub-010,48.7,47.0,49.5,COM3,2024-01-30_15h06.39.033,2024_RDpaindiscrimination_maintask,2023.2.3,60.01006968952248,2024-01-30 15h07.04.505044 -0500,
0,0,0,0,6,0,6,0,,,,,,,,,,,,,215.70217050000792,,,,,,,,215.68650930000877,220.68573650000326,220.68574260000605,220.70222649999778,232.7189764000068,232.68617390000145,2,active,48.7,232.68618140000035,236.4873760000046,7.500000000000167,3.783,,,,,,,,,,,,,,,,,,,,,,,,,,,,,,,,,,,,,,sub-010,48.7,47.0,49.5,COM3,2024-01-30_15h06.39.033,2024_RDpaindiscrimination_maintask,2023.2.3,60.01006968952248,2024-01-30 15h07.04.505044 -0500,
0,0,0,0,7,0,7,0,,,,,,,,,,,,,236.50241060000553,,,,,,,,236.48824910000258,241.4860192000051,241.48602520000713,241.50235850000172,253.51924360000703,253.48640760000853,3,inactive,48.7,253.4864147000044,256.0218855999992,20.500000000000142,2.516,,,,,,,,,,,,,,,,,,,,,,,,,,,,,,,,,,,,,,sub-010,48.7,47.0,49.5,COM3,2024-01-30_15h06.39.033,2024_RDpaindiscrimination_maintask,2023.2.3,60.01006968952248,2024-01-30 15h07.04.505044 -0500,
0,0,0,0,8,0,8,0,,,,,,,,,,,,,256.03594390000217,,,,,,,,256.02269640000304,261.0194349000085,261.019441299999,261.03592580000986,273.0527124000073,273.01987160000135,0,active,48.7,273.01987889999873,275.87245650000114,6.9999999999999885,2.833,,,,,,,,,,,,,,,,,,,,,,,,,,,,,,,,,,,,,,sub-010,48.7,47.0,49.5,COM3,2024-01-30_15h06.39.033,2024_RDpaindiscrimination_maintask,2023.2.3,60.01006968952248,2024-01-30 15h07.04.505044 -0500,
0,0,0,0,9,0,9,0,,,,,,,,,,,,,275.88611770000716,,,,,,,,275.87319850000495,280.86964940000325,280.86965570000757,280.8861567999993,292.90294830000494,292.8701172000001,1,active,48.7,292.8701244999975,296.5062779,5.50000000000013,3.617,,,,,,,,,,,,,,,,,,,,,,,,,,,,,,,,,,,,,,sub-010,48.7,47.0,49.5,COM3,2024-01-30_15h06.39.033,2024_RDpaindiscrimination_maintask,2023.2.3,60.01006968952248,2024-01-30 15h07.04.505044 -0500,
0,0,0,0,10,0,10,0,,,,,,,,,,,,,296.51961070000834,,,,,,,,296.5070743000106,301.5032943000115,301.5033001999982,301.5197377000004,313.5366068000003,313.5037003000034,2,inactive,48.7,313.5037075,316.57335770000645,20.000000000000178,3.051,,,,,,,,,,,,,,,,,,,,,,,,,,,,,,,,,,,,,,sub-010,48.7,47.0,49.5,COM3,2024-01-30_15h06.39.033,2024_RDpaindiscrimination_maintask,2023.2.3,60.01006968952248,2024-01-30 15h07.04.505044 -0500,
0,0,0,0,11,0,11,0,,,,,,,,,,,,,316.5865166000003,,,,,,,,316.57412170000316,321.5700682000024,321.57007450000674,321.58657520001,333.60338220000267,333.57050970000273,3,inactive,48.7,333.5705170000001,335.35504510000465,14.500000000000004,1.766,,,,,,,,,,,,,,,,,,,,,,,,,,,,,,,,,,,,,,sub-010,48.7,47.0,49.5,COM3,2024-01-30_15h06.39.033,2024_RDpaindiscrimination_maintask,2023.2.3,60.01006968952248,2024-01-30 15h07.04.505044 -0500,
0,0,0,0,12,0,12,0,,,,,,,,,,,,,335.3700843000115,,,,,,,,335.35530590001144,340.3536153000023,340.3536213000043,340.3701182000077,352.43692420001025,352.35407549999945,0,active,48.7,352.35408260000986,355.97199610000825,8.000000000000167,3.549,,,,,,,,,,,,,,,,,,,,,,,,,,,,,,,,,,,,,,sub-010,48.7,47.0,49.5,COM3,2024-01-30_15h06.39.033,2024_RDpaindiscrimination_maintask,2023.2.3,60.01006968952248,2024-01-30 15h07.04.505044 -0500,
0,0,0,0,13,0,13,0,,,,,,,,,,,,,355.98711719999847,,,,,,,,355.97275840000657,360.97055420000106,360.9705599000008,360.9870243000041,373.0038260000001,372.9709717000078,1,inactive,48.7,372.9709789000044,376.32265670000925,21.500000000000206,3.333,,,,,,,,,,,,,,,,,,,,,,,,,,,,,,,,,,,,,,sub-010,48.7,47.0,49.5,COM3,2024-01-30_15h06.39.033,2024_RDpaindiscrimination_maintask,2023.2.3,60.01006968952248,2024-01-30 15h07.04.505044 -0500,
0,0,0,0,14,0,14,0,,,,,,,,,,,,,376.3372328000114,,,,,,,,376.3234830000001,381.32075690000784,381.3207628000091,381.337254500002,393.3540659999999,393.32119570000214,2,inactive,48.7,393.3212031000003,396.02151340000273,20.500000000000142,2.681,,,,,,,,,,,,,,,,,,,,,,,,,,,,,,,,,,,,,,sub-010,48.7,47.0,49.5,COM3,2024-01-30_15h06.39.033,2024_RDpaindiscrimination_maintask,2023.2.3,60.01006968952248,2024-01-30 15h07.04.505044 -0500,
0,0,0,0,15,0,15,0,,,,,,,,,,,,,396.0374550999986,,,,,,,,396.02175670000724,401.0209845000063,401.0209908000106,401.03748910001013,413.05427790000977,413.02143480000086,3,active,48.7,413.02144450000196,416.290021400011,8.500000000000131,3.25,,,,,,,,,,,,,,,,,,,,,,,,,,,,,,,,,,,,,,sub-010,48.7,47.0,49.5,COM3,2024-01-30_15h06.39.033,2024_RDpaindiscrimination_maintask,2023.2.3,60.01006968952248,2024-01-30 15h07.04.505044 -0500,
0,0,0,0,,,,,0,0,0,0,0,0,0,0,,,,,443.85459830000764,,,,,,441.5885688999988,443.83823269999993,,,,,,,0,active,48.7,460.8382744999981,463.6409888000053,21.00000000000014,2.784,416.2906301000039,416.3043168000004,441.5882476000115,443.8385207000101,448.83821310001076,448.8382203000074,448.85469760000706,460.83826780000527,,,,,,,,,,,,,,,,,,,,,,,,,,,,,,sub-010,48.7,47.0,49.5,COM3,2024-01-30_15h06.39.033,2024_RDpaindiscrimination_maintask,2023.2.3,60.01006968952248,2024-01-30 15h07.04.505044 -0500,
0,0,0,0,,,,,0,0,0,0,1,0,1,0,,,,,463.65487690000737,,,,,,,,,,,,,,1,inactive,48.7,480.63873800000874,482.35838380000496,17.500000000000032,1.701,,,,463.6417167000036,468.63841060000414,468.6384170000092,468.65492000000086,480.6387317000044,480.6717218999984,,,,,,,,,,,,,,,,,,,,,,,,,,,,,sub-010,48.7,47.0,49.5,COM3,2024-01-30_15h06.39.033,2024_RDpaindiscrimination_maintask,2023.2.3,60.01006968952248,2024-01-30 15h07.04.505044 -0500,
0,0,0,0,,,,,0,0,0,0,,,,,0,0,0,0,488.42181600000185,,,,,,,,,,,,,,2,active,,,,,,,,,,,,,,,482.358902699998,488.40549479999754,488.40580190000765,493.4053563000052,493.40536350000184,493.421872100007,501.40529320000496,501.40529320000496,504.3719992999977,504.405330900001,504.405330900001,504.38884410000173,3.62,5.18,362,518,8,1.2,0.75,pic-present,1,m,0.5466512000130024,None,,,,,sub-010,48.7,47.0,49.5,COM3,2024-01-30_15h06.39.033,2024_RDpaindiscrimination_maintask,2023.2.3,60.01006968952248,2024-01-30 15h07.04.505044 -0500,
0,0,0,0,,,,,0,0,0,0,,,,,1,0,1,0,504.405330900001,,,,,,,,,,,,,,3,active,,,,,,,,,,,,,,,,,504.38948070000333,509.3888929000095,509.38889930000005,509.40538460000244,517.3888408000057,517.3888408000057,520.3555396000011,520.3888592000003,520.3888592000003,520.3723629000015,4.46,4.34,446,434,8,1.2,0.75,pic-present,1,m,0.6028490000026068,None,,,,,sub-010,48.7,47.0,49.5,COM3,2024-01-30_15h06.39.033,2024_RDpaindiscrimination_maintask,2023.2.3,60.01006968952248,2024-01-30 15h07.04.505044 -0500,
0,0,0,0,,,,,0,0,0,0,,,,,2,0,2,0,520.3888592000003,,,,,,,,,,,,,,0,inactive,,,,,,,,,,,,,,,,,520.3728593999986,525.3724103999994,525.3724172000075,525.3889112000033,533.3723294000083,533.3723294000083,536.3390291000105,536.3724110000039,536.3724110000039,536.3558922000084,4.36,4.44,436,444,8,1.2,0.75,pic-absent,1,m,0.46860510000260547,None,,,,,sub-010,48.7,47.0,49.5,COM3,2024-01-30_15h06.39.033,2024_RDpaindiscrimination_maintask,2023.2.3,60.01006968952248,2024-01-30 15h07.04.505044 -0500,
0,0,0,0,,,,,0,0,0,0,,,,,3,0,3,0,536.3724110000039,,,,,,,,,,,,,,1,inactive,,,,,,,,,,,,,,,,,536.3563876000117,541.3559634999983,541.355970500008,541.3724310000107,549.3558754999976,549.3558754999976,552.3225823000103,552.3559886000003,552.3559886000003,552.339499499998,4.61,4.19,461,419,8,1.2,0.75,pic-present,1,m,0.3363225999928545,None,,,,,sub-010,48.7,47.0,49.5,COM3,2024-01-30_15h06.39.033,2024_RDpaindiscrimination_maintask,2023.2.3,60.01006968952248,2024-01-30 15h07.04.505044 -0500,
0,0,0,0,,,,,1,0,1,0,0,0,0,0,,,,,554.9060585999978,,,,,,552.3400128000067,554.8898986999993,,,,,,,2,inactive,48.7,571.8901358000003,575.5247887000005,14.000000000000075,3.616,,,,554.8902700000035,559.8895762000029,559.8895837000018,559.906017900008,571.8901276000106,571.9228207999986,,,,,,,,,,,,,,,,,,,,,,,,,,,,,sub-010,48.7,47.0,49.5,COM3,2024-01-30_15h06.39.033,2024_RDpaindiscrimination_maintask,2023.2.3,60.01006968952248,2024-01-30 15h07.04.505044 -0500,
0,0,0,0,,,,,1,0,1,0,1,0,1,0,,,,,575.5395288,,,,,,,,,,,,,,3,active,48.7,592.5235289999982,594.3088209999987,16.000000000000007,1.767,,,,575.5254835000087,580.5233622000087,580.5233688000008,580.5396162000106,592.5235226000077,592.5563602000038,,,,,,,,,,,,,,,,,,,,,,,,,,,,,sub-010,48.7,47.0,49.5,COM3,2024-01-30_15h06.39.033,2024_RDpaindiscrimination_maintask,2023.2.3,60.01006968952248,2024-01-30 15h07.04.505044 -0500,
0,0,0,0,,,,,1,0,1,0,,,,,0,0,0,0,597.4564127000049,,,,,,,,,,,,,,0,active,,,,,,,,,,,,,,,594.3090203000029,597.4400087000104,597.4403198000073,602.4399638000032,602.4399706000113,602.4565169999987,610.4398941000109,610.4398941000109,613.4065979000006,613.4399293000024,613.4399293000024,613.4234485000052,3.31,5.49,331,549,8,1.2,0.75,pic-absent,1,m,0.4116846999968402,None,,,,,sub-010,48.7,47.0,49.5,COM3,2024-01-30_15h06.39.033,2024_RDpaindiscrimination_maintask,2023.2.3,60.01006968952248,2024-01-30 15h07.04.505044 -0500,
0,0,0,0,,,,,1,0,1,0,,,,,1,0,1,0,613.4399293000024,,,,,,,,,,,,,,1,inactive,,,,,,,,,,,,,,,,,613.423976200007,618.423486700005,618.4234933000116,618.4399806000001,626.4234182000073,626.4234182000073,629.3901408000092,629.4234484000044,629.4234484000044,629.4069595000037,4.16,4.64,416,463,8,1.2,0.75,pic-absent,0,n,0.41557720000855625,None,,,,,sub-010,48.7,47.0,49.5,COM3,2024-01-30_15h06.39.033,2024_RDpaindiscrimination_maintask,2023.2.3,60.01006968952248,2024-01-30 15h07.04.505044 -0500,
0,0,0,0,,,,,1,0,1,0,,,,,2,0,2,0,629.4234484000044,,,,,,,,,,,,,,2,active,,,,,,,,,,,,,,,,,629.4074170000094,634.4070040000079,634.4070102999976,634.4235044000088,642.4069353000086,642.4069353000086,645.3737739000062,645.407051400005,645.407051400005,645.3905992000073,3.89,4.91,389,491,8,1.2,0.75,pic-present,1,m,0.3288144999969518,None,,,,,sub-010,48.7,47.0,49.5,COM3,2024-01-30_15h06.39.033,2024_RDpaindiscrimination_maintask,2023.2.3,60.01006968952248,2024-01-30 15h07.04.505044 -0500,
0,0,0,0,,,,,1,0,1,0,,,,,3,0,3,0,645.407051400005,,,,,,,,,,,,,,3,active,,,,,,,,,,,,,,,,,645.3910806000058,650.3906320000096,650.3906385000009,650.4071192999982,658.3905658000003,658.3905658000003,661.3572631999996,661.3906110000098,661.3906110000098,661.3741246999998,4.43,4.37,443,437,8,1.2,0.75,pic-absent,1,m,0.38075980001303833,None,,,,,sub-010,48.7,47.0,49.5,COM3,2024-01-30_15h06.39.033,2024_RDpaindiscrimination_maintask,2023.2.3,60.01006968952248,2024-01-30 15h07.04.505044 -0500,
0,0,0,0,,,,,2,0,2,0,0,0,0,0,,,,,664.0239368000039,,,,,,661.3746414000052,664.0076582000038,,,,,,,0,inactive,48.7,681.0080081000051,683.5760089000105,22.500000000000064,2.549,,,,664.0079782000103,669.0075331999979,669.0075405000098,669.0240386000078,681.0080025000061,681.0407897000114,,,,,,,,,,,,,,,,,,,,,,,,,,,,,sub-010,48.7,47.0,49.5,COM3,2024-01-30_15h06.39.033,2024_RDpaindiscrimination_maintask,2023.2.3,60.01006968952248,2024-01-30 15h07.04.505044 -0500,
0,0,0,0,,,,,2,0,2,0,1,0,1,0,,,,,683.5908665000024,,,,,,,,,,,,,,1,active,48.7,700.5746357000025,703.0598543000087,22.000000000000064,2.467,,,,683.5767619000108,688.5744363999984,688.574443000005,688.5908619999973,700.5746297000005,700.6076281999995,,,,,,,,,,,,,,,,,,,,,,,,,,,,,sub-010,48.7,47.0,49.5,COM3,2024-01-30_15h06.39.033,2024_RDpaindiscrimination_maintask,2023.2.3,60.01006968952248,2024-01-30 15h07.04.505044 -0500,
0,0,0,0,,,,,2,0,2,0,,,,,0,0,0,0,705.0744561000029,,,,,,,,,,,,,,2,inactive,,,,,,,,,,,,,,,703.0603885000019,705.0581660000025,705.0584692999983,710.0580355999991,710.0580423000065,710.0745153000025,718.0579391000065,718.0579391000065,721.0246492000006,721.057965400003,721.057965400003,721.0415138000099,3.54,5.26,354,526,8,1.2,0.75,pic-absent,1,m,0.31876979999651667,None,,,,,sub-010,48.7,47.0,49.5,COM3,2024-01-30_15h06.39.033,2024_RDpaindiscrimination_maintask,2023.2.3,60.01006968952248,2024-01-30 15h07.04.505044 -0500,
0,0,0,0,,,,,2,0,2,0,,,,,1,0,1,0,721.057965400003,,,,,,,,,,,,,,3,inactive,,,,,,,,,,,,,,,,,721.0420241000102,726.0414766000031,726.0414835999982,726.0580237000104,734.0414542000071,734.0414542000071,737.0081535000063,737.041450100005,737.041450100005,737.0249783000036,4.59,4.21,459,421,8,1.2,0.75,pic-present,1,m,0.2776194000034593,None,,,,,sub-010,48.7,47.0,49.5,COM3,2024-01-30_15h06.39.033,2024_RDpaindiscrimination_maintask,2023.2.3,60.01006968952248,2024-01-30 15h07.04.505044 -0500,
0,0,0,0,,,,,2,0,2,0,,,,,2,0,2,0,737.041450100005,,,,,,,,,,,,,,0,active,,,,,,,,,,,,,,,,,737.0254431000067,742.0250705000071,742.0250777000037,742.0414693000057,750.0249358000001,750.0249358000001,752.9916364000092,753.0250197999994,753.0250197999994,753.0084848999977,4.16,4.64,416,463,8,1.2,0.75,pic-absent,1,m,0.3753087999939453,None,,,,,sub-010,48.7,47.0,49.5,COM3,2024-01-30_15h06.39.033,2024_RDpaindiscrimination_maintask,2023.2.3,60.01006968952248,2024-01-30 15h07.04.505044 -0500,
0,0,0,0,,,,,2,0,2,0,,,,,3,0,3,0,753.0250197999994,,,,,,,,,,,,,,1,inactive,,,,,,,,,,,,,,,,,753.0089368000044,758.0085926000029,758.0085995000118,758.0250635999982,766.0085036000091,766.0085036000091,768.9751992000092,769.0084988000017,769.0084988000017,768.992050300003,3.85,4.95,385,495,8,1.2,0.75,pic-absent,0,n,0.6152870999940205,None,,,,,sub-010,48.7,47.0,49.5,COM3,2024-01-30_15h06.39.033,2024_RDpaindiscrimination_maintask,2023.2.3,60.01006968952248,2024-01-30 15h07.04.505044 -0500,
0,0,0,0,,,,,3,0,3,0,0,0,0,0,,,,,771.2752273000078,,,,,,768.9925971000048,771.2589078000019,,,,,,,2,active,48.7,788.2590477000049,790.361470200005,20.0,2.084,,,,771.2592301000113,776.2587783000054,776.2587901000079,776.2752122000093,788.2590416000021,788.2919675000012,,,,,,,,,,,,,,,,,,,,,,,,,,,,,sub-010,48.7,47.0,49.5,COM3,2024-01-30_15h06.39.033,2024_RDpaindiscrimination_maintask,2023.2.3,60.01006968952248,2024-01-30 15h07.04.505044 -0500,
0,0,0,0,,,,,3,0,3,0,1,0,1,0,,,,,790.3754409000103,,,,,,,,,,,,,,3,inactive,48.7,807.3593543000025,808.8445482000097,20.0,1.466,,,,790.3621382999991,795.3590560000011,795.3590620000032,795.3754017000028,807.3593478999974,807.3923062000104,,,,,,,,,,,,,,,,,,,,,,,,,,,,,sub-010,48.7,47.0,49.5,COM3,2024-01-30_15h06.39.033,2024_RDpaindiscrimination_maintask,2023.2.3,60.01006968952248,2024-01-30 15h07.04.505044 -0500,
0,0,0,0,,,,,3,0,3,0,,,,,0,0,0,0,811.2422331999987,,,,,,,,,,,,,,0,inactive,,,,,,,,,,,,,,,808.8447409000073,811.2258473000111,811.2261581000057,816.2257940999989,816.2258008000063,816.2423233000009,824.2257170000084,824.2257170000084,827.1924529000098,827.2258810000058,827.2258810000058,827.209396700011,4.69,4.11,469,411,8,1.2,0.75,pic-present,1,m,0.3696066999982577,None,,,,,sub-010,48.7,47.0,49.5,COM3,2024-01-30_15h06.39.033,2024_RDpaindiscrimination_maintask,2023.2.3,60.01006968952248,2024-01-30 15h07.04.505044 -0500,
0,0,0,0,,,,,3,0,3,0,,,,,1,0,1,0,827.2258810000058,,,,,,,,,,,,,,1,active,,,,,,,,,,,,,,,,,827.2099586000113,832.2094262000028,832.2094329000101,832.2259262000007,840.2092441999994,840.2092441999994,843.1759447000077,843.2093187999999,843.2093187999999,843.1927872000088,4.07,4.73,407,473,8,1.2,0.75,pic-absent,0,n,0.42180279998865444,None,,,,,sub-010,48.7,47.0,49.5,COM3,2024-01-30_15h06.39.033,2024_RDpaindiscrimination_maintask,2023.2.3,60.01006968952248,2024-01-30 15h07.04.505044 -0500,
0,0,0,0,,,,,3,0,3,0,,,,,2,0,2,0,843.2093187999999,,,,,,,,,,,,,,2,inactive,,,,,,,,,,,,,,,,,843.193247800009,848.1928406000079,848.1928474000015,848.209328900004,856.1927542000049,856.1927542000049,859.1595002000104,859.1928334999975,859.1928334999975,859.1763384000078,4.39,4.41,438,441,8,1.2,0.75,pic-present,1,m,0.33065680001163855,None,,,,,sub-010,48.7,47.0,49.5,COM3,2024-01-30_15h06.39.033,2024_RDpaindiscrimination_maintask,2023.2.3,60.01006968952248,2024-01-30 15h07.04.505044 -0500,
0,0,0,0,,,,,3,0,3,0,,,,,3,0,3,0,859.1928334999975,,,,,,,,,,,,,,3,active,,,,,,,,,,,,,,,,,859.1768129999982,864.1763740000024,864.1763809000113,864.1928914000018,872.1763122999982,872.1763122999982,875.1430196000001,875.1762703999993,875.1762703999993,875.1599123000051,4.31,4.49,430,449,8,1.2,0.75,pic-present,1,m,0.3828589000040665,None,,,,,sub-010,48.7,47.0,49.5,COM3,2024-01-30_15h06.39.033,2024_RDpaindiscrimination_maintask,2023.2.3,60.01006968952248,2024-01-30 15h07.04.505044 -0500,
1,0,1,0,0,0,0,0,,,,,,,,,,,,,940.1103653000027,,,,935.4940267000056,937.6939513000107,937.6939585000073,940.0939766000083,940.094270600006,945.0939259000006,945.093932600008,945.1104821000044,957.1272368000064,957.0943554999976,0,inactive,48.7,957.094362600008,959.0122497999982,20.0,1.895,,,,,,,,,,,,,,,,,,,,,,,,,,,,,,,,,,875.1603459000034,935.4939025000058,,,sub-010,48.7,47.0,49.5,COM3,2024-01-30_15h06.39.033,2024_RDpaindiscrimination_maintask,2023.2.3,60.01006968952248,2024-01-30 15h07.04.505044 -0500,
1,0,1,0,1,0,1,0,,,,,,,,,,,,,959.0272925000027,,,,,,,,959.0125206000084,964.0108194000059,964.0108257000102,964.027317,976.0441275000048,976.0112567000033,1,inactive,48.7,976.0112641000014,977.7461820000026,14.500000000000004,1.716,,,,,,,,,,,,,,,,,,,,,,,,,,,,,,,,,,,,,,sub-010,48.7,47.0,49.5,COM3,2024-01-30_15h06.39.033,2024_RDpaindiscrimination_maintask,2023.2.3,60.01006968952248,2024-01-30 15h07.04.505044 -0500,
1,0,1,0,2,0,2,0,,,,,,,,,,,,,977.7608525000105,,,,,,,,977.746449600003,982.7444434000063,982.7444495000091,982.7609373000014,994.7777965999994,994.7448835000105,2,active,48.7,994.7448912000109,996.4295151000115,5.4999999999999964,1.666,,,,,,,,,,,,,,,,,,,,,,,,,,,,,,,,,,,,,,sub-010,48.7,47.0,49.5,COM3,2024-01-30_15h06.39.033,2024_RDpaindiscrimination_maintask,2023.2.3,60.01006968952248,2024-01-30 15h07.04.505044 -0500,
1,0,1,0,3,0,3,0,,,,,,,,,,,,,996.4444515000068,,,,,,,,996.4297949000029,1001.4280009000067,1001.4280072999973,1001.4445444000012,1013.4613160000008,1013.4284096000047,3,inactive,48.7,1013.4284170000028,1017.0141235000046,20.500000000000213,3.567,,,,,,,,,,,,,,,,,,,,,,,,,,,,,,,,,,,,,,sub-010,48.7,47.0,49.5,COM3,2024-01-30_15h06.39.033,2024_RDpaindiscrimination_maintask,2023.2.3,60.01006968952248,2024-01-30 15h07.04.505044 -0500,
1,0,1,0,4,0,4,0,,,,,,,,,,,,,1017.0279986000096,,,,,,,,1017.0148712000082,1022.0115596000105,1022.011565599998,1022.0280900000071,1034.0449174000096,1034.0120134000026,0,active,48.7,1034.0120210000023,1036.3311141000013,13.50000000000003,2.3,,,,,,,,,,,,,,,,,,,,,,,,,,,,,,,,,,,,,,sub-010,48.7,47.0,49.5,COM3,2024-01-30_15h06.39.033,2024_RDpaindiscrimination_maintask,2023.2.3,60.01006968952248,2024-01-30 15h07.04.505044 -0500,
1,0,1,0,5,0,5,0,,,,,,,,,,,,,1036.3449051000061,,,,,,,,1036.3318824000016,1041.3293362999975,1041.3293433000072,1041.3449335000041,1053.361766800008,1053.328895300001,1,inactive,48.7,1053.3289024999976,1055.3812335999974,18.500000000000036,2.033,,,,,,,,,,,,,,,,,,,,,,,,,,,,,,,,,,,,,,sub-010,48.7,47.0,49.5,COM3,2024-01-30_15h06.39.033,2024_RDpaindiscrimination_maintask,2023.2.3,60.01006968952248,2024-01-30 15h07.04.505044 -0500,
1,0,1,0,6,0,6,0,,,,,,,,,,,,,1055.395111100006,,,,,,,,1055.3820768000005,1060.378684700001,1060.3786913000076,1060.3952045000042,1072.411983500002,1072.3791281000013,2,active,48.7,1072.3791352999979,1074.3298461000086,10.0,1.932,,,,,,,,,,,,,,,,,,,,,,,,,,,,,,,,,,,,,,sub-010,48.7,47.0,49.5,COM3,2024-01-30_15h06.39.033,2024_RDpaindiscrimination_maintask,2023.2.3,60.01006968952248,2024-01-30 15h07.04.505044 -0500,
1,0,1,0,7,0,7,0,,,,,,,,,,,,,1074.3453013000108,,,,,,,,1074.330119300008,1079.328862399998,1079.328868800003,1079.3453784000012,1091.3622036000015,1091.329341100005,3,active,48.7,1091.3293477000116,1094.547871600007,9.500000000000133,3.2,,,,,,,,,,,,,,,,,,,,,,,,,,,,,,,,,,,,,,sub-010,48.7,47.0,49.5,COM3,2024-01-30_15h06.39.033,2024_RDpaindiscrimination_maintask,2023.2.3,60.01006968952248,2024-01-30 15h07.04.505044 -0500,
1,0,1,0,8,0,8,0,,,,,,,,,,,,,1094.5622980000044,,,,,,,,1094.5483857000072,1099.545822400003,1099.5458288000082,1099.5623178000096,1111.5790681000071,1111.5461962000118,0,inactive,48.7,1111.5462034000084,1115.0818825000024,19.000000000000213,3.517,,,,,,,,,,,,,,,,,,,,,,,,,,,,,,,,,,,,,,sub-010,48.7,47.0,49.5,COM3,2024-01-30_15h06.39.033,2024_RDpaindiscrimination_maintask,2023.2.3,60.01006968952248,2024-01-30 15h07.04.505044 -0500,
1,0,1,0,9,0,9,0,,,,,,,,,,,,,1115.0958838000079,,,,,,,,1115.082652099998,1120.079438300003,1120.0794448000088,1120.0958901999984,1132.1127011000062,1132.0798145000008,1,active,48.7,1132.0798222000012,1134.697732200002,9.000000000000096,2.599,,,,,,,,,,,,,,,,,,,,,,,,,,,,,,,,,,,,,,sub-010,48.7,47.0,49.5,COM3,2024-01-30_15h06.39.033,2024_RDpaindiscrimination_maintask,2023.2.3,60.01006968952248,2024-01-30 15h07.04.505044 -0500,
1,0,1,0,10,0,10,0,,,,,,,,,,,,,1134.712682700003,,,,,,,,1134.698561199999,1139.6962311000098,1139.6962388000102,1139.7127385000058,1151.7295433000108,1151.6967114,2,inactive,48.7,1151.6967191000003,1154.232682700007,19.500000000000036,2.517,,,,,,,,,,,,,,,,,,,,,,,,,,,,,,,,,,,,,,sub-010,48.7,47.0,49.5,COM3,2024-01-30_15h06.39.033,2024_RDpaindiscrimination_maintask,2023.2.3,60.01006968952248,2024-01-30 15h07.04.505044 -0500,
1,0,1,0,11,0,11,0,,,,,,,,,,,,,1154.2463506000058,,,,,,,,1154.2334379000094,1159.2298475999996,1159.229853900004,1159.2462916000077,1171.2631151000096,1171.230212800001,3,inactive,48.7,1171.2302199999976,1174.4822805000003,21.500000000000206,3.233,,,,,,,,,,,,,,,,,,,,,,,,,,,,,,,,,,,,,,sub-010,48.7,47.0,49.5,COM3,2024-01-30_15h06.39.033,2024_RDpaindiscrimination_maintask,2023.2.3,60.01006968952248,2024-01-30 15h07.04.505044 -0500,
1,0,1,0,12,0,12,0,,,,,,,,,,,,,1174.4965274999995,,,,,,,,1174.483049900009,1179.4801552999998,1179.4801615000033,1179.4966526000062,1191.513469700003,1191.4805830000114,0,active,48.7,1191.480592500011,1194.5996453999978,10.000000000000133,3.1,,,,,,,,,,,,,,,,,,,,,,,,,,,,,,,,,,,,,,sub-010,48.7,47.0,49.5,COM3,2024-01-30_15h06.39.033,2024_RDpaindiscrimination_maintask,2023.2.3,60.01006968952248,2024-01-30 15h07.04.505044 -0500,
1,0,1,0,13,0,13,0,,,,,,,,,,,,,1194.6135085999995,,,,,,,,1194.6004810000013,1199.5970569000056,1199.5970634000114,1199.6135584000003,1211.6303709000058,1211.597503500001,1,active,48.7,1211.5975111000007,1215.7166299000091,9.500000000000204,4.1,,,,,,,,,,,,,,,,,,,,,,,,,,,,,,,,,,,,,,sub-010,48.7,47.0,49.5,COM3,2024-01-30_15h06.39.033,2024_RDpaindiscrimination_maintask,2023.2.3,60.01006968952248,2024-01-30 15h07.04.505044 -0500,
1,0,1,0,14,0,14,0,,,,,,,,,,,,,1215.730421100001,,,,,,,,1215.71742310001,1220.7139814999973,1220.7139874999993,1220.7304035999987,1232.7472632999998,1232.7144273000013,2,inactive,48.7,1232.714434300011,1235.1495812000067,26.00000000000012,2.416,,,,,,,,,,,,,,,,,,,,,,,,,,,,,,,,,,,,,,sub-010,48.7,47.0,49.5,COM3,2024-01-30_15h06.39.033,2024_RDpaindiscrimination_maintask,2023.2.3,60.01006968952248,2024-01-30 15h07.04.505044 -0500,
1,0,1,0,15,0,15,0,,,,,,,,,,,,,1235.1639743999986,,,,,,,,1235.1498586000089,1240.1475457000051,1240.1475520000095,1240.1640329000074,1252.1807047000038,1252.1478705000045,3,active,48.7,1252.1478779000026,1255.8836527000094,9.500000000000204,3.717,,,,,,,,,,,,,,,,,,,,,,,,,,,,,,,,,,,,,,sub-010,48.7,47.0,49.5,COM3,2024-01-30_15h06.39.033,2024_RDpaindiscrimination_maintask,2023.2.3,60.01006968952248,2024-01-30 15h07.04.505044 -0500,
1,0,1,0,,,,,0,0,0,0,0,0,0,0,,,,,1263.9808909999992,,,,,,1262.1981793000014,1263.9645355000102,,,,,,,0,inactive,48.7,1280.9648727000022,1283.0508185000072,17.500000000000007,2.066,1255.8842376000102,1255.8974548999977,1262.1978324000083,1263.9648134000017,1268.9644445000013,1268.9644516999979,1268.9809441000107,1280.9648662000109,1280.9977142999996,,,,,,,,,,,,,,,,,,,,,,,,,,,,,sub-010,48.7,47.0,49.5,COM3,2024-01-30_15h06.39.033,2024_RDpaindiscrimination_maintask,2023.2.3,60.01006968952248,2024-01-30 15h07.04.505044 -0500,
1,0,1,0,,,,,0,0,0,0,1,0,1,0,,,,,1283.0645237999997,,,,,,,,,,,,,,1,active,48.7,1300.0482908999984,1303.199449000007,16.00000000000021,3.133,,,,1283.0515865000052,1288.0479622999992,1288.0479689000058,1288.0644992000016,1300.0482848000102,1300.081274199998,,,,,,,,,,,,,,,,,,,,,,,,,,,,,sub-010,48.7,47.0,49.5,COM3,2024-01-30_15h06.39.033,2024_RDpaindiscrimination_maintask,2023.2.3,60.01006968952248,2024-01-30 15h07.04.505044 -0500,
1,0,1,0,,,,,0,0,0,0,,,,,0,0,0,0,1305.1813354000042,,,,,,,,,,,,,,2,inactive,,,,,,,,,,,,,,,1303.199983300001,1305.1650023999973,1305.1653079000098,1310.1649362000026,1310.1649432999984,1310.1814304,1318.164901199998,1318.164901199998,1321.1316076000076,1321.164989099998,1321.164989099998,1321.1485014000064,3.74,5.06,374,505,8,1.2,0.75,pic-absent,1,m,0.4908614000014495,None,,,,,sub-010,48.7,47.0,49.5,COM3,2024-01-30_15h06.39.033,2024_RDpaindiscrimination_maintask,2023.2.3,60.01006968952248,2024-01-30 15h07.04.505044 -0500,
1,0,1,0,,,,,0,0,0,0,,,,,1,0,1,0,1321.164989099998,,,,,,,,,,,,,,3,active,,,,,,,,,,,,,,,,,1321.149045500002,1326.1484906999976,1326.148497800008,1326.1649469999975,1334.148449500004,1334.148449500004,1337.1150746000058,1337.148455500006,1337.148455500006,1337.131911400007,3.44,5.36,344,536,8,1.2,0.75,pic-absent,1,m,0.3562518000107957,None,,,,,sub-010,48.7,47.0,49.5,COM3,2024-01-30_15h06.39.033,2024_RDpaindiscrimination_maintask,2023.2.3,60.01006968952248,2024-01-30 15h07.04.505044 -0500,
1,0,1,0,,,,,0,0,0,0,,,,,2,0,2,0,1337.148455500006,,,,,,,,,,,,,,0,inactive,,,,,,,,,,,,,,,,,1337.1323693000013,1342.1319627000048,1342.1319693000114,1342.1484684000025,1350.1318847000075,1350.1318847000075,1353.0986138000007,1353.1319360000052,1353.1319360000052,1353.1154309999984,4.62,4.18,462,418,8,1.2,0.75,pic-present,1,m,0.4072128999978304,None,,,,,sub-010,48.7,47.0,49.5,COM3,2024-01-30_15h06.39.033,2024_RDpaindiscrimination_maintask,2023.2.3,60.01006968952248,2024-01-30 15h07.04.505044 -0500,
1,0,1,0,,,,,0,0,0,0,,,,,3,0,3,0,1353.1319360000052,,,,,,,,,,,,,,1,inactive,,,,,,,,,,,,,,,,,1353.1158884000033,1358.1156588000013,1358.1156657000101,1358.1320340000093,1366.115521300002,1366.115521300002,1369.0820784000098,1369.115415799999,1369.115415799999,1369.0989336000057,3.6,5.2,360,520,8,1.2,0.75,pic-absent,0,n,0.9315477999916766,None,,,,,sub-010,48.7,47.0,49.5,COM3,2024-01-30_15h06.39.033,2024_RDpaindiscrimination_maintask,2023.2.3,60.01006968952248,2024-01-30 15h07.04.505044 -0500,
1,0,1,0,,,,,1,0,1,0,0,0,0,0,,,,,1371.7988975000044,,,,,,1369.0994024000101,1371.7824695000018,,,,,,,2,active,48.7,1388.7828111999988,1391.367750999998,16.00000000000014,2.566,,,,1371.7828021000023,1376.7823444000096,1376.7823518000077,1376.7988499000057,1388.7828052999976,1388.8156683999987,,,,,,,,,,,,,,,,,,,,,,,,,,,,,sub-010,48.7,47.0,49.5,COM3,2024-01-30_15h06.39.033,2024_RDpaindiscrimination_maintask,2023.2.3,60.01006968952248,2024-01-30 15h07.04.505044 -0500,
1,0,1,0,,,,,1,0,1,0,1,0,1,0,,,,,1391.3823625000077,,,,,,,,,,,,,,3,inactive,48.7,1408.366218700001,1410.4011014999996,19.500000000000036,2.016,,,,1391.3686269000027,1396.3658965000068,1396.365903900005,1396.3824356999976,1408.3662124999973,1408.3992475999985,,,,,,,,,,,,,,,,,,,,,,,,,,,,,sub-010,48.7,47.0,49.5,COM3,2024-01-30_15h06.39.033,2024_RDpaindiscrimination_maintask,2023.2.3,60.01006968952248,2024-01-30 15h07.04.505044 -0500,
1,0,1,0,,,,,1,0,1,0,,,,,0,0,0,0,1411.8993734000105,,,,,,,,,,,,,,0,active,,,,,,,,,,,,,,,1410.4016139000014,1411.8831301000027,1411.8834353999991,1416.882805000001,1416.8828117000085,1416.8993689000054,1424.8827011000103,1424.8827011000103,1427.8494381000055,1427.882761700006,1427.882761700006,1427.866269200007,3.84,4.96,384,496,8,1.2,0.75,pic-present,1,m,0.2645157999941148,None,,,,,sub-010,48.7,47.0,49.5,COM3,2024-01-30_15h06.39.033,2024_RDpaindiscrimination_maintask,2023.2.3,60.01006968952248,2024-01-30 15h07.04.505044 -0500,
1,0,1,0,,,,,1,0,1,0,,,,,1,0,1,0,1427.882761700006,,,,,,,,,,,,,,1,active,,,,,,,,,,,,,,,,,1427.8668079000054,1432.8663187000056,1432.8663253999985,1432.8828273000108,1440.8662574000045,1440.8662574000045,1443.8329568000045,1443.8663424999977,1443.8663424999977,1443.8497992000048,4.51,4.29,451,429,8,1.2,0.75,pic-present,1,m,0.5610228000005009,None,,,,,sub-010,48.7,47.0,49.5,COM3,2024-01-30_15h06.39.033,2024_RDpaindiscrimination_maintask,2023.2.3,60.01006968952248,2024-01-30 15h07.04.505044 -0500,
1,0,1,0,,,,,1,0,1,0,,,,,2,0,2,0,1443.8663424999977,,,,,,,,,,,,,,2,inactive,,,,,,,,,,,,,,,,,1443.8502537000022,1448.8498389000015,1448.8498456000088,1448.8663434000046,1456.8497652000078,1456.8497652000078,1459.8164746000111,1459.8498546000046,1459.8498546000046,1459.833323800005,3.6,5.2,360,520,8,1.2,0.75,pic-absent,1,m,0.369286800007103,None,,,,,sub-010,48.7,47.0,49.5,COM3,2024-01-30_15h06.39.033,2024_RDpaindiscrimination_maintask,2023.2.3,60.01006968952248,2024-01-30 15h07.04.505044 -0500,
1,0,1,0,,,,,1,0,1,0,,,,,3,0,3,0,1459.8498546000046,,,,,,,,,,,,,,3,active,,,,,,,,,,,,,,,,,1459.8338183000014,1464.8333741000097,1464.833380600001,1464.8498639000027,1472.833292100011,1472.833292100011,1475.7999955999985,1475.8333343999984,1475.8333343999984,1475.8168159000052,4.46,4.34,446,434,8,1.2,0.75,pic-present,1,m,0.42634029999317136,None,,,,,sub-010,48.7,47.0,49.5,COM3,2024-01-30_15h06.39.033,2024_RDpaindiscrimination_maintask,2023.2.3,60.01006968952248,2024-01-30 15h07.04.505044 -0500,
1,0,1,0,,,,,2,0,2,0,0,0,0,0,,,,,1477.7333501000103,,,,,,1475.817293900007,1477.7169613000005,,,,,,,0,inactive,48.7,1494.7173753000097,1496.718018200001,26.500000000000085,1.982,,,,1477.717245000007,1482.7169316000072,1482.7169385000016,1482.7335687000013,1494.7173690000054,1494.7502414000046,,,,,,,,,,,,,,,,,,,,,,,,,,,,,sub-010,48.7,47.0,49.5,COM3,2024-01-30_15h06.39.033,2024_RDpaindiscrimination_maintask,2023.2.3,60.01006968952248,2024-01-30 15h07.04.505044 -0500,
1,0,1,0,,,,,2,0,2,0,1,0,1,0,,,,,1496.7337018000107,,,,,,,,,,,,,,1,active,48.7,1513.7174925,1516.5346016000112,17.50000000000021,2.798,,,,1496.7183132000064,1501.7171551000065,1501.7171616999985,1501.7336748000089,1513.717485900008,1513.7505018000084,,,,,,,,,,,,,,,,,,,,,,,,,,,,,sub-010,48.7,47.0,49.5,COM3,2024-01-30_15h06.39.033,2024_RDpaindiscrimination_maintask,2023.2.3,60.01006968952248,2024-01-30 15h07.04.505044 -0500,
1,0,1,0,,,,,2,0,2,0,,,,,0,0,0,0,1518.683905900005,,,,,,,,,,,,,,2,inactive,,,,,,,,,,,,,,,1516.5347755000112,1518.6674495000043,1518.667772300003,1523.6674128000013,1523.6674200999987,1523.683920800002,1531.6673778000113,1531.6673778000113,1534.6340999000095,1534.6674140000105,1534.6674140000105,1534.6508810000087,4.18,4.62,418,462,8,1.2,0.75,pic-present,1,m,0.3795299000048544,None,,,,,sub-010,48.7,47.0,49.5,COM3,2024-01-30_15h06.39.033,2024_RDpaindiscrimination_maintask,2023.2.3,60.01006968952248,2024-01-30 15h07.04.505044 -0500,
1,0,1,0,,,,,2,0,2,0,,,,,1,0,1,0,1534.6674140000105,,,,,,,,,,,,,,3,inactive,,,,,,,,,,,,,,,,,1534.6514382000023,1539.650953400007,1539.6509597999975,1539.6674421000062,1547.6508825000055,1547.6508825000055,1550.6175329000107,1550.6508642000117,1550.6508642000117,1550.6343725000042,4.33,4.47,433,447,8,1.2,0.75,pic-absent,0,n,1.324519000001601,None,,,,,sub-010,48.7,47.0,49.5,COM3,2024-01-30_15h06.39.033,2024_RDpaindiscrimination_maintask,2023.2.3,60.01006968952248,2024-01-30 15h07.04.505044 -0500,
1,0,1,0,,,,,2,0,2,0,,,,,2,0,2,0,1550.6508642000117,,,,,,,,,,,,,,0,active,,,,,,,,,,,,,,,,,1550.6348276000062,1555.6344100999995,1555.6344173000107,1555.6509661000018,1563.634387900005,1563.634387900005,1566.601085400005,1566.6344537999976,1566.6344537999976,1566.6179421999987,4.23,4.57,423,457,8,1.2,0.75,pic-absent,1,m,0.48528220001026057,None,,,,,sub-010,48.7,47.0,49.5,COM3,2024-01-30_15h06.39.033,2024_RDpaindiscrimination_maintask,2023.2.3,60.01006968952248,2024-01-30 15h07.04.505044 -0500,
1,0,1,0,,,,,2,0,2,0,,,,,3,0,3,0,1566.6344537999976,,,,,,,,,,,,,,1,inactive,,,,,,,,,,,,,,,,,1566.618444000007,1571.6179749000003,1571.6179816000076,1571.6345234000037,1579.6179190000112,1579.6179190000112,1582.5846094000008,1582.6179486000037,1582.6179486000037,1582.6015017000027,4.0,4.8,400,480,8,1.2,0.75,pic-present,1,m,0.30232170000090264,None,,,,,sub-010,48.7,47.0,49.5,COM3,2024-01-30_15h06.39.033,2024_RDpaindiscrimination_maintask,2023.2.3,60.01006968952248,2024-01-30 15h07.04.505044 -0500,
1,0,1,0,,,,,3,0,3,0,0,0,0,0,,,,,1584.9346382000076,,,,,,1582.602015299999,1584.9182633000019,,,,,,,2,active,48.7,1601.9186637000093,1603.9033581999975,25.00000000000009,1.859,,,,1584.918572399998,1589.9182120000041,1589.9182188999985,1589.9347055000108,1601.9186573000043,1602.0515430000087,,,,,,,,,,,,,,,,,,,,,,,,,,,,,sub-010,48.7,47.0,49.5,COM3,2024-01-30_15h06.39.033,2024_RDpaindiscrimination_maintask,2023.2.3,60.01006968952248,2024-01-30 15h07.04.505044 -0500,
1,0,1,0,,,,,3,0,3,0,1,0,1,0,,,,,1603.9182313000056,,,,,,,,,,,,,,3,inactive,48.7,1620.902207600011,1622.4358485999983,25.500000000000014,1.515,,,,1603.9036129000015,1608.9017784000025,1608.901785000009,1608.9182467000064,1620.902200800003,1620.9350236000028,,,,,,,,,,,,,,,,,,,,,,,,,,,,,sub-010,48.7,47.0,49.5,COM3,2024-01-30_15h06.39.033,2024_RDpaindiscrimination_maintask,2023.2.3,60.01006968952248,2024-01-30 15h07.04.505044 -0500,
1,0,1,0,,,,,3,0,3,0,,,,,0,0,0,0,1624.4183983000112,,,,,,,,,,,,,,0,active,,,,,,,,,,,,,,,1622.4360701000114,1624.4058810999995,1624.406204400002,1629.4019527000055,1629.4019597000006,1629.4185027000058,1637.4185499000014,1637.4185499000014,1640.3685824999993,1640.4185825000022,1640.4185825000022,1640.4021393000003,4.64,4.16,463,416,8,1.2,0.75,pic-absent,1,m,0.33746869998867624,None,,,,,sub-010,48.7,47.0,49.5,COM3,2024-01-30_15h06.39.033,2024_RDpaindiscrimination_maintask,2023.2.3,60.01006968952248,2024-01-30 15h07.04.505044 -0500,
1,0,1,0,,,,,3,0,3,0,,,,,1,0,1,0,1640.4185825000022,,,,,,,,,,,,,,1,inactive,,,,,,,,,,,,,,,,,1640.4027156000084,1645.4021315999998,1645.4021382000064,1645.418604400009,1653.4020593000023,1653.4020593000023,1656.3687602999998,1656.402102699998,1656.402102699998,1656.3856199000002,4.25,4.55,425,455,8,1.2,0.75,pic-present,1,m,0.39305670000612736,None,,,,,sub-010,48.7,47.0,49.5,COM3,2024-01-30_15h06.39.033,2024_RDpaindiscrimination_maintask,2023.2.3,60.01006968952248,2024-01-30 15h07.04.505044 -0500,
1,0,1,0,,,,,3,0,3,0,,,,,2,0,2,0,1656.402102699998,,,,,,,,,,,,,,2,active,,,,,,,,,,,,,,,,,1656.3860637000034,1661.3856520000118,1661.3856590000069,1661.402160800004,1669.3856754000008,1669.3856754000008,1672.35228810001,1672.3856230000092,1672.3856230000092,1672.3691810000018,4.2,4.6,420,459,8,1.2,0.75,pic-present,1,m,0.39728929998818785,None,,,,,sub-010,48.7,47.0,49.5,COM3,2024-01-30_15h06.39.033,2024_RDpaindiscrimination_maintask,2023.2.3,60.01006968952248,2024-01-30 15h07.04.505044 -0500,
1,0,1,0,,,,,3,0,3,0,,,,,3,0,3,0,1672.3856230000092,,,,,,,,,,,,,,3,active,,,,,,,,,,,,,,,,,1672.3696363000054,1677.369211600002,1677.3692188999994,1677.3856775000022,1685.3691043,1685.3691043,1688.335806300005,1688.369133100001,1688.369133100001,1688.3526502000022,4.29,4.51,429,451,8,1.2,0.75,pic-absent,1,m,0.35834069999691565,None,,,,,sub-010,48.7,47.0,49.5,COM3,2024-01-30_15h06.39.033,2024_RDpaindiscrimination_maintask,2023.2.3,60.01006968952248,2024-01-30 15h07.04.505044 -0500,
,,,,,,,,,,,,,,,,,,,,,,,,,,,,,,,,,,,,,,,,,,,,,,,,,,,,,,,,,,,,,,,,,,,,,,,,,,1688.3530902000057,1783.9038828000048,1783.9039104000112,1793.9038845000032,,,,,,,,,,,
