series.thisRepN,series.thisTrialN,series.thisN,series.thisIndex,Ramp.thisRepN,Ramp.thisTrialN,Ramp.thisN,Ramp.thisIndex,trials.thisRepN,trials.thisTrialN,trials.thisN,trials.thisIndex,thisRow.t,notes,Welcome.started,Welcome.stopped,instructions2.started,instructions2.stopped,instructions_start_ramp.started,instructions_start_ramp.stopped,confirm_continue.started,key_resp_8.started,confirm_continue.stopped,intensity,wait1_dur,wait.started,wait.stopped,therm_trig.started,therm_trig.stopped,rating_scale.started,rating_scale.stopped,rating,ratingScale.response,ratingScale.rt,press_when_ready.started,text_2.started,key_resp_3.started,press_when_ready.stopped,key_resp_3.keys,key_resp_3.rt,key_resp_3.duration,bloc_terminé.started,bloc_terminé.stopped,compile_ramps.started,compile_ramps.stopped,deuxieme_start.started,deuxieme_start.stopped,press_when_ready2.started,text_9.started,press_when_ready2.stopped,wait_2.started,wait_2.stopped,therm_trig2.started,therm_trig2.stopped,rating_scale2.started,rating_scale2.stopped,keyResp_2.keys,therm_value,ratingScale_2.response,ratingScale_2.rt,thank_you_output_code.started,thank_you_output_code.stopped,participant,com_thermode,nramps,date,expName,psychopyVersion,frameRate,expStart,
0,0,0,0,0,0,0,0,,,,,2172.0732549999375,,0.0017452000174671412,2168.3569205999374,2168.3569325999124,2170.023604099988,2170.02404379996,2172.05693969992,2172.05724939995,2172.0732549999375,2173.2570189000107,41,2.1,2173.257205499918,2175.356807300006,2175.356815499952,2187.3568556000246,2187.356861899956,2191.980486799963,19.000000000000007,19.000000000000007,4.601,2191.9810458999127,2191.990174699924,2191.990174699924,2200.7407187999925,y,8.747092199977487,None,,,,,,,,,,,,,,,,,,,,,,sub-026,COM3,3,2024-02-19_12h04.19.159,2024_RDpaindiscrimination_calibration,2023.2.3,60.02249642128164,2024-02-19 12h04.28.776694 -0500,
0,0,0,0,1,0,1,0,,,,,2200.756964899949,,,,,,,,2200.7410195999546,2200.756964899949,2202.5572619999293,42,2.0,2202.557382699917,2204.5571202000137,2204.5571284999605,2216.5572131000226,2216.5572184999473,2218.8948846999556,26.999999999999975,26.999999999999975,2.32,2218.89535399992,2218.9071747999405,2218.9071747999405,2239.807609500014,y,20.898492299951613,None,,,,,,,,,,,,,,,,,,,,,,sub-026,COM3,3,2024-02-19_12h04.19.159,2024_RDpaindiscrimination_calibration,2023.2.3,60.02249642128164,2024-02-19 12h04.28.776694 -0500,
0,0,0,0,2,0,2,0,,,,,2239.8239931999706,,,,,,,,2239.8078168999637,2239.8239931999706,2240.707654799917,43,2.3,2240.707771699992,2243.007561999955,2243.007570100017,2255.007894399925,2255.007901199977,2257.4278299999423,18.500000000000007,18.500000000000007,2.402,2257.4282568999333,2257.4409215999767,2257.4409215999767,2261.074755199952,y,3.633328399970196,None,,,,,,,,,,,,,,,,,,,,,,sub-026,COM3,3,2024-02-19_12h04.19.159,2024_RDpaindiscrimination_calibration,2023.2.3,60.02249642128164,2024-02-19 12h04.28.776694 -0500,
0,0,0,0,3,0,3,0,,,,,2261.0909217000008,,,,,,,,2261.074961700011,2261.0909217000008,2262.041274599964,44,2.1,2262.0413953999523,2264.1411560999695,2264.1411638999125,2276.141523599974,2276.141530200024,2279.8459298999514,47.50000000000004,47.50000000000004,3.642,2279.846382000018,2279.8578265999677,2279.8578265999677,2293.8748587999726,y,14.011449199984781,None,,,,,,,,,,,,,,,,,,,,,,sub-026,COM3,3,2024-02-19_12h04.19.159,2024_RDpaindiscrimination_calibration,2023.2.3,60.02249642128164,2024-02-19 12h04.28.776694 -0500,
0,0,0,0,4,0,4,0,,,,,2293.8913036999293,,,,,,,,2293.8750697999494,2293.8913036999293,2295.1582682000007,45,2.1,2295.1583887999877,2297.2580869999947,2297.2580953999422,2309.2585191000253,2309.258525399957,2313.180312599987,80.0,80.0,3.904,2313.1807669999544,2313.1914814999327,2313.1914814999327,2317.175100499997,y,3.9752538999309763,None,,,,,,,,,,,,,,,,,,,,,,sub-026,COM3,3,2024-02-19_12h04.19.159,2024_RDpaindiscrimination_calibration,2023.2.3,60.02249642128164,2024-02-19 12h04.28.776694 -0500,
0,0,0,0,5,0,5,0,,,,,2317.1914610000094,,,,,,,,2317.175306699937,2317.1914610000094,2318.3751097000204,46,2.2,2318.375228799996,2320.5750292999437,2320.5750378000084,2332.575363199925,2332.5753701999784,2340.629260699963,86.49999999999989,86.49999999999989,8.036,2340.629729099921,2340.6417801999487,2340.6417801999487,2348.3587826999137,y,7.704602900077589,None,,,,,,,,,,,,,,,,,,,,,,sub-026,COM3,3,2024-02-19_12h04.19.159,2024_RDpaindiscrimination_calibration,2023.2.3,60.02249642128164,2024-02-19 12h04.28.776694 -0500,
0,0,0,0,6,0,6,0,,,,,2348.3752461000113,,,,,,,,2348.359012999921,2348.3752461000113,2349.4589890999487,47,2.5,2349.459111299948,2351.9587169999722,2351.9587245999137,2363.959118800005,2363.959125399939,2368.7294721999206,100.0,100.0,4.752,2368.729902299936,2368.742130199913,2368.742130199913,2369.509046699968,n,0.7514503999846056,None,,,,,,,,,,,,,,,,,,,,,,sub-026,COM3,3,2024-02-19_12h04.19.159,2024_RDpaindiscrimination_calibration,2023.2.3,60.02249642128164,2024-02-19 12h04.28.776694 -0500,
0,0,0,0,,,,,,,,,,,,,,,,,,,,,,,,,,,,,,,,,,,,,,2369.5092182999942,2373.508983299951,,,,,,,,,,,,,,,,,,,,sub-026,COM3,3,2024-02-19_12h04.19.159,2024_RDpaindiscrimination_calibration,2023.2.3,60.02249642128164,2024-02-19 12h04.28.776694 -0500,
1,0,1,0,0,0,0,0,,,,,2383.0588801000267,,,,,,2373.5091223999625,2383.042483099969,2383.04277499998,2383.0588801000267,2386.9591670000227,41,2.5,2386.959354499937,2389.4591295999708,2389.459138999926,2401.459375799983,2401.459382599918,2404.0804356000153,0.0,0.0,2.603,2404.0809971999843,2404.0924814000027,2404.0924814000027,2407.659276599996,y,3.5570386999752373,None,,,,,,,,,,,,,,,,,,,,,,sub-026,COM3,3,2024-02-19_12h04.19.159,2024_RDpaindiscrimination_calibration,2023.2.3,60.02249642128164,2024-02-19 12h04.28.776694 -0500,
1,0,1,0,1,0,1,0,,,,,2407.675648799981,,,,,,,,2407.6595936999656,2407.675648799981,2408.5259638999123,42,2.5,2408.5260865999153,2411.025857099914,2411.0258657999802,2423.026243499946,2423.026250099996,2426.7465651999228,0.0,0.0,3.702,2426.747002399992,2426.7592487999937,2426.7592487999937,2429.5762289999984,y,2.8145625999895856,None,,,,,,,,,,,,,,,,,,,,,,sub-026,COM3,3,2024-02-19_12h04.19.159,2024_RDpaindiscrimination_calibration,2023.2.3,60.02249642128164,2024-02-19 12h04.28.776694 -0500,
1,0,1,0,2,0,2,0,,,,,2429.5925422,,,,,,,,2429.5764729999937,2429.5925422,2430.442831399967,43,2.5,2430.442966099945,2432.942739699967,2432.9427476999117,2444.943119399948,2444.9431258999975,2451.7804280000273,16.000000000000078,16.000000000000078,6.819,2451.78090709995,2451.792863199953,2451.792863199953,2454.6598002000246,y,2.857719000079669,None,,,,,,,,,,,,,,,,,,,,,,sub-026,COM3,3,2024-02-19_12h04.19.159,2024_RDpaindiscrimination_calibration,2023.2.3,60.02249642128164,2024-02-19 12h04.28.776694 -0500,
1,0,1,0,3,0,3,0,,,,,2454.67612790002,,,,,,,,2454.6600341999438,2454.67612790002,2455.743199600023,44,2.3,2455.743321600021,2458.043064999976,2458.0430735999253,2470.043438200024,2470.043445899966,2474.0147775999503,19.000000000000178,19.000000000000178,3.953,2474.015246899915,2474.0264808000065,2474.0264808000065,2476.7100380000193,y,2.6830548000289127,None,,,,,,,,,,,,,,,,,,,,,,sub-026,COM3,3,2024-02-19_12h04.19.159,2024_RDpaindiscrimination_calibration,2023.2.3,60.02249642128164,2024-02-19 12h04.28.776694 -0500,
1,0,1,0,4,0,4,0,,,,,2476.726483699982,,,,,,,,2476.710248699994,2476.726483699982,2477.4267465999583,45,2.1,2477.4268653999316,2479.526735399966,2479.5267431000248,2491.527056199964,2491.527063300018,2493.797845699941,50.99999999999996,50.99999999999996,2.252,2493.7982568999287,2493.81010839995,2493.81010839995,2496.393564299913,y,2.566740100039169,None,,,,,,,,,,,,,,,,,,,,,,sub-026,COM3,3,2024-02-19_12h04.19.159,2024_RDpaindiscrimination_calibration,2023.2.3,60.02249642128164,2024-02-19 12h04.28.776694 -0500,
1,0,1,0,5,0,5,0,,,,,2496.4099634999875,,,,,,,,2496.3937675999478,2496.4099634999875,2497.3435773999663,46,2.0,2497.3436995999655,2499.3434881999856,2499.3434967999347,2511.3435215000063,2511.343526999932,2516.8308809999144,90.99999999999994,90.99999999999994,5.469,2516.8313547999132,2516.8435768999625,2516.8435768999625,2519.34389499994,y,2.4973751000361517,None,,,,,,,,,,,,,,,,,,,,,,sub-026,COM3,3,2024-02-19_12h04.19.159,2024_RDpaindiscrimination_calibration,2023.2.3,60.02249642128164,2024-02-19 12h04.28.776694 -0500,
1,0,1,0,6,0,6,0,,,,,2519.360259899986,,,,,,,,2519.3440979999723,2519.360259899986,2520.21058850002,47,2.4,2520.210709100007,2522.610516899964,2522.610525499913,2534.6108183999313,2534.610825299984,2539.4158451999538,100.0,100.0,4.787,2539.4163239999907,2539.427137700026,2539.427137700026,2539.8107489999384,n,0.3705303999595344,None,,,,,,,,,,,,,,,,,,,,,,sub-026,COM3,3,2024-02-19_12h04.19.159,2024_RDpaindiscrimination_calibration,2023.2.3,60.02249642128164,2024-02-19 12h04.28.776694 -0500,
1,0,1,0,,,,,,,,,,,,,,,,,,,,,,,,,,,,,,,,,,,,,,2539.8109110000078,2543.81067799998,,,,,,,,,,,,,,,,,,,,sub-026,COM3,3,2024-02-19_12h04.19.159,2024_RDpaindiscrimination_calibration,2023.2.3,60.02249642128164,2024-02-19 12h04.28.776694 -0500,
2,0,2,0,0,0,0,0,,,,,2545.9939209999284,,,,,,2543.810804900015,2545.977481000009,2545.9778409999562,2545.9939209999284,2547.260854799999,41,2.0,2547.2610240000067,2549.260764800012,2549.260775099974,2561.2611157000065,2561.2611226999434,2564.9998639000114,0.0,0.0,3.721,2565.00042149995,2565.0107847999316,2565.0107847999316,2567.177651999984,y,2.150715099996887,None,,,,,,,,,,,,,,,,,,,,,,sub-026,COM3,3,2024-02-19_12h04.19.159,2024_RDpaindiscrimination_calibration,2023.2.3,60.02249642128164,2024-02-19 12h04.28.776694 -0500,
2,0,2,0,1,0,1,0,,,,,2567.194058199995,,,,,,,,2567.177946300013,2567.194058199995,2567.8110334000085,42,2.1,2567.8111565000145,2569.91092569998,2569.910933999927,2581.9112927999813,2581.911299399915,2586.6496288999915,7.000000000000068,7.000000000000068,4.721,2586.6500387999695,2586.661026799935,2586.661026799935,2590.2446264999453,y,3.5764085000846535,None,,,,,,,,,,,,,,,,,,,,,,sub-026,COM3,3,2024-02-19_12h04.19.159,2024_RDpaindiscrimination_calibration,2023.2.3,60.02249642128164,2024-02-19 12h04.28.776694 -0500,
2,0,2,0,2,0,2,0,,,,,2590.261000999948,,,,,,,,2590.244834300014,2590.261000999948,2590.944628399913,43,2.0,2590.944746299996,2592.9445259999484,2592.944534200011,2604.94488049997,2604.944887200021,2609.1162878000177,0.0,0.0,4.154,2609.1167306000134,2609.1278456000146,2609.1278456000146,2612.361557099968,y,3.2293508000439033,None,,,,,,,,,,,,,,,,,,,,,,sub-026,COM3,3,2024-02-19_12h04.19.159,2024_RDpaindiscrimination_calibration,2023.2.3,60.02249642128164,2024-02-19 12h04.28.776694 -0500,
2,0,2,0,3,0,3,0,,,,,2612.3778870999813,,,,,,,,2612.3617640999146,2612.3778870999813,2613.3282141999807,44,2.3,2613.328348299954,2615.628094299929,2615.628103099996,2627.6284488999518,2627.628456000006,2633.966781200026,0.0,0.0,6.321,2633.9672596999444,2633.9781227000058,2633.9781227000058,2637.178357900004,y,3.199225699994713,None,,,,,,,,,,,,,,,,,,,,,,sub-026,COM3,3,2024-02-19_12h04.19.159,2024_RDpaindiscrimination_calibration,2023.2.3,60.02249642128164,2024-02-19 12h04.28.776694 -0500,
2,0,2,0,4,0,4,0,,,,,2637.194730899995,,,,,,,,2637.1786056999117,2637.194730899995,2638.0450713000027,45,2.4,2638.0451898999745,2640.4450054999907,2640.4450141999405,2652.445287499926,2652.4452964999946,2655.516963199945,37.50000000000008,37.50000000000008,3.054,2655.5174538999563,2655.528419099981,2655.528419099981,2657.928623499931,y,2.3890085000311956,None,,,,,,,,,,,,,,,,,,,,,,sub-026,COM3,3,2024-02-19_12h04.19.159,2024_RDpaindiscrimination_calibration,2023.2.3,60.02249642128164,2024-02-19 12h04.28.776694 -0500,
2,0,2,0,5,0,5,0,,,,,2657.9450142999412,,,,,,,,2657.928839799948,2657.9450142999412,2658.478652599966,46,2.5,2658.478777899989,2660.9785694999155,2660.9785778999794,2672.978909999947,2672.9789170000004,2675.516006799997,68.00000000000004,68.00000000000004,2.519,2675.5164682000177,2675.528494999977,2675.528494999977,2677.928970000008,y,2.4000596000114456,None,,,,,,,,,,,,,,,,,,,,,,sub-026,COM3,3,2024-02-19_12h04.19.159,2024_RDpaindiscrimination_calibration,2023.2.3,60.02249642128164,2024-02-19 12h04.28.776694 -0500,
2,0,2,0,6,0,6,0,,,,,2677.945165999932,,,,,,,,2677.929184700013,2677.945165999932,2678.678804499912,47,2.4,2678.6789251000155,2681.078688999987,2681.0786975999363,2693.079123399919,2693.0791298999684,2697.066674600006,100.0,100.0,3.969,2697.067149200011,2697.0787902999436,2697.0787902999436,2698.1123215999687,n,1.0185301000019535,None,,,,,,,,,,,,,,,,,,,,,,sub-026,COM3,3,2024-02-19_12h04.19.159,2024_RDpaindiscrimination_calibration,2023.2.3,60.02249642128164,2024-02-19 12h04.28.776694 -0500,
2,0,2,0,,,,,,,,,,,,,,,,,,,,,,,,,,,,,,,,,,,,,,2698.112517099944,2702.1122309999773,,,,,,,,,,,,,,,,,,,,sub-026,COM3,3,2024-02-19_12h04.19.159,2024_RDpaindiscrimination_calibration,2023.2.3,60.02249642128164,2024-02-19 12h04.28.776694 -0500,
,,,,,,,,0,0,0,0,2730.2624633000232,,,,,,,,,,,,2.4,,,,,,,19.00000000000007,,,,,,,,,,,,2702.112256799941,2707.1122808000073,2707.1122879999457,2730.246166399913,2730.246518599917,2730.2624633000232,2731.5960181999253,2731.5960322999163,2733.9959775999887,2733.995987399947,2745.9963735999772,2745.99638139992,2748.6351764999563,None,43.5,19.00000000000007,2.621,,,sub-026,COM3,3,2024-02-19_12h04.19.159,2024_RDpaindiscrimination_calibration,2023.2.3,60.02249642128164,2024-02-19 12h04.28.776694 -0500,
,,,,,,,,1,0,1,0,2748.646042599925,,,,,,,,,,,,2.0,,,,,,,69.49999999999993,,,,,,,,,,,,,,,,2748.6364321999718,2748.646042599925,2757.5630357000045,2757.563044899958,2759.5629071999574,2759.562916200026,2771.5634712999454,2771.563478600001,2774.2020602999255,None,45.8,69.49999999999993,2.621,,,sub-026,COM3,3,2024-02-19_12h04.19.159,2024_RDpaindiscrimination_calibration,2023.2.3,60.02249642128164,2024-02-19 12h04.28.776694 -0500,
,,,,,,,,2,0,2,0,2774.212901599938,,,,,,,,,,,,2.4,,,,,,,0.0,,,,,,,,,,,,,,,,2774.2029924999224,2774.212901599938,2776.0799200999318,2776.0799295000033,2778.479816499981,2778.4798252999317,2790.480158600025,2790.480166399968,2794.3009518999606,None,42.8,0.0,3.803,,,sub-026,COM3,3,2024-02-19_12h04.19.159,2024_RDpaindiscrimination_calibration,2023.2.3,60.02249642128164,2024-02-19 12h04.28.776694 -0500,
,,,,,,,,3,0,3,0,2794.313116599922,,,,,,,,,,,,2.4,,,,,,,0.0,,,,,,,,,,,,,,,,2794.3018924000207,2794.313116599922,2795.7966997999465,2795.796708800015,2798.196679799934,2798.1966883999994,2810.196999299922,2810.1970066999784,2813.5850704999175,None,43.9,0.0,3.314,,,sub-026,COM3,3,2024-02-19_12h04.19.159,2024_RDpaindiscrimination_calibration,2023.2.3,60.02249642128164,2024-02-19 12h04.28.776694 -0500,
,,,,,,,,4,0,4,0,2813.5965245999396,,,,,,,,,,,,2.4,,,,,,,78.99999999999997,,,,,,,,,,,,,,,,2813.5860594999976,2813.5965245999396,2814.8635413999436,2814.8635506000137,2817.263463399955,2817.2634721000213,2829.2638717999216,2829.263879099977,2831.002363699954,None,46.2,78.99999999999997,1.721,,,sub-026,COM3,3,2024-02-19_12h04.19.159,2024_RDpaindiscrimination_calibration,2023.2.3,60.02249642128164,2024-02-19 12h04.28.776694 -0500,
,,,,,,,,5,0,5,0,2831.013563000015,,,,,,,,,,,,2.3,,,,,,,43.5,,,,,,,,,,,,,,,,2831.0032904000254,2831.013563000015,2832.2471586000174,2832.247167899972,2834.546992599964,2834.5470019999193,2846.547415799927,2846.5474230999826,2849.7185661999974,None,44.3,43.5,3.154,,,sub-026,COM3,3,2024-02-19_12h04.19.159,2024_RDpaindiscrimination_calibration,2023.2.3,60.02249642128164,2024-02-19 12h04.28.776694 -0500,
,,,,,,,,6,0,6,0,2849.7304247999564,,,,,,,,,,,,2.0,,,,,,,33.00000000000006,,,,,,,,,,,,,,,,2849.7194860000163,2849.7304247999564,2851.080605200026,2851.0806153999874,2853.0805119000142,2853.0805259000044,2865.0809074999997,2865.0809154999442,2866.6854770999635,None,42.0,33.00000000000006,1.587,,,sub-026,COM3,3,2024-02-19_12h04.19.159,2024_RDpaindiscrimination_calibration,2023.2.3,60.02249642128164,2024-02-19 12h04.28.776694 -0500,
,,,,,,,,7,0,7,0,2866.697148700012,,,,,,,,,,,,2.3,,,,,,,0.0,,,,,,,,,,,,,,,,2866.6862061999273,2866.697148700012,2867.7974904999137,2867.7974998999853,2870.0973477999214,2870.0973569999915,2882.097762799938,2882.0977706999984,2883.7011418999173,None,43.2,0.0,1.586,,,sub-026,COM3,3,2024-02-19_12h04.19.159,2024_RDpaindiscrimination_calibration,2023.2.3,60.02249642128164,2024-02-19 12h04.28.776694 -0500,
,,,,,,,,8,0,8,0,2883.7140439000214,,,,,,,,,,,,2.0,,,,,,,52.999999999999986,,,,,,,,,,,,,,,,2883.7014414999867,2883.7140439000214,2885.0976242999313,2885.0976329999976,2887.0975305999164,2887.097539499984,2899.0978856999427,2899.0978933000006,2901.1490409999387,None,45.5,52.999999999999986,2.033,,,sub-026,COM3,3,2024-02-19_12h04.19.159,2024_RDpaindiscrimination_calibration,2023.2.3,60.02249642128164,2024-02-19 12h04.28.776694 -0500,
,,,,,,,,9,0,9,0,2901.1641056999797,,,,,,,,,,,,2.3,,,,,,,77.4999999999998,,,,,,,,,,,,,,,,2901.1493138999213,2901.1641056999797,2903.3811184000224,2903.381127199973,2905.6810489000054,2905.6810582999606,2917.681438099942,2917.6814457,2921.937384599936,None,44.7,77.4999999999998,4.238,,,sub-026,COM3,3,2024-02-19_12h04.19.159,2024_RDpaindiscrimination_calibration,2023.2.3,60.02249642128164,2024-02-19 12h04.28.776694 -0500,
,,,,,,,,10,0,10,0,2921.947706499952,,,,,,,,,,,,2.0,,,,,,,13.500000000000101,,,,,,,,,,,,,,,,2921.9383754999144,2921.947706499952,2923.0314631999936,2923.0314723999472,2925.0312523000175,2925.031260799966,2937.031529299915,2937.031537199975,2940.136607500026,None,42.4,13.500000000000101,3.088,,,sub-026,COM3,3,2024-02-19_12h04.19.159,2024_RDpaindiscrimination_calibration,2023.2.3,60.02249642128164,2024-02-19 12h04.28.776694 -0500,
,,,,,,,,11,0,11,0,2940.147874300019,,,,,,,,,,,,2.4,,,,,,,100.0,,,,,,,,,,,,,,,,2940.1375532000093,2940.147874300019,2941.664848599932,2941.6648575,2944.0646918999264,2944.0647005999926,2956.065183199942,2956.0651908,2958.4366723999847,None,46.6,100.0,2.354,,,sub-026,COM3,3,2024-02-19_12h04.19.159,2024_RDpaindiscrimination_calibration,2023.2.3,60.02249642128164,2024-02-19 12h04.28.776694 -0500,
,,,,,,,,12,0,12,0,2958.4481278000167,,,,,,,,,,,,2.3,,,,,,,100.0,,,,,,,,,,,,,,,,2958.43758119992,2958.4481278000167,2959.7483069999143,2959.7483160999836,2962.048211499932,2962.0482211000053,2974.048575600027,2974.0485828999663,2977.070320799947,None,47.0,100.0,3.004,,,sub-026,COM3,3,2024-02-19_12h04.19.159,2024_RDpaindiscrimination_calibration,2023.2.3,60.02249642128164,2024-02-19 12h04.28.776694 -0500,
,,,,,,,,13,0,13,0,2977.081605699961,,,,,,,,,,,,2.3,,,,,,,93.50000000000009,,,,,,,,,,,,,,,,2977.0711642999668,2977.081605699961,2978.348542499938,2978.348552200012,2980.6484130999306,2980.6484224000014,2992.6487670999486,2992.6487742000027,2996.0521205000114,None,45.1,93.50000000000009,3.386,,,sub-026,COM3,3,2024-02-19_12h04.19.159,2024_RDpaindiscrimination_calibration,2023.2.3,60.02249642128164,2024-02-19 12h04.28.776694 -0500,
,,,,,,,,,,,,,,,,,,,,,,,,,,,,,,,,,,,,,,,,,,,,,,,,,,,,,,,,,,,,2996.0528770999517,3001.048626099946,,,,,,,,,
