trials.thisRepN,trials.thisTrialN,trials.thisN,trials.thisIndex,loop_test.thisRepN,loop_test.thisTrialN,loop_test.thisN,loop_test.thisIndex,loop_eval_discri.thisRepN,loop_eval_discri.thisTrialN,loop_eval_discri.thisN,loop_eval_discri.thisIndex,loop_eval.thisRepN,loop_eval.thisTrialN,loop_eval.thisN,loop_eval.thisIndex,loop_discri.thisRepN,loop_discri.thisTrialN,loop_discri.thisN,loop_discri.thisIndex,thisRow.t,notes,Set_up.started,Set_up.stopped,electrode_check.started,electrode_check.stopped,instructions_eval.started,instructions_eval.stopped,pause_5_test.started,pause_5_test.stopped,Phase_Test.started,thermode_locali.started,Phase_Test.stopped,loca_thermode,condition,temp_trial_sent,eval_douleur.started,eval_douleur.stopped,ratingScale.response,ratingScale.rt,thermode_locali.stopped,Fin_test.started,text.started,Fin_test.stopped,pause_5_EVA.started,pause_5_EVA.stopped,tâche_EVA.started,thermode_locali_EVA.started,tâche_EVA.stopped,thermode_locali_EVA.stopped,instructions_discrim.started,instructions_discrim.stopped,pause_5_pic.started,pause_5_pic.stopped,tâche_PIC.started,thermode_locali_pic.started,percu_or.started,responser.started,thermode_locali_pic.stopped,percu_or.stopped,responser.stopped,tâche_PIC.stopped,dur_plateau1,dur_plateau2,dur_plateau1_sent,dur_plateau2_sent,start_plateau_2_resp,dur_pic,dur_rise,pic_presence,pic_response,discrimin_resp.keys,discrimin_resp.rt,discrimin_resp.duration,break_entre_bloc.started,break_entre_bloc.stopped,merci.started,merci.stopped,participant,temp_flat,temp_active,temp_pic_set,com_thermode,date,expName,psychopyVersion,frameRate,expStart,
0,0,0,0,0,0,0,0,,,,,,,,,,,,,212.1271411999769,,0.008054899983108044,206.3940623999806,206.39441709997482,208.8441168999998,208.84412559997872,212.0941328999761,212.09441459999653,217.11063489998924,217.11064089997672,217.12729449998005,229.1107751999807,0,active,41.6,229.11101629998302,234.2133562999952,9.500000000000062,5.079,,,,,,,,,,,,,,,,,,,,,,,,,,,,,,,,,,,,,,,sub-051,42.9,41.6,43.7,COM3,2024-08-08_11h41.04.769,2024_RDpaindiscrimination_maintask,2023.2.3,59.986886867939994,2024-08-08 11h41.26.252727 -0400,
0,0,0,0,1,0,1,0,,,,,,,,,,,,,234.22747230000095,,,,,,,,234.21432459997595,239.21106589998817,239.21107269998174,239.22751659998903,251.21143989998382,1,active,41.6,251.21160290000262,258.1309762999881,17.50000000000021,6.9,251.24431149999145,,,,,,,,,,,,,,,,,,,,,,,,,,,,,,,,,,,,,,sub-051,42.9,41.6,43.7,COM3,2024-08-08_11h41.04.769,2024_RDpaindiscrimination_maintask,2023.2.3,59.986886867939994,2024-08-08 11h41.26.252727 -0400,
0,0,0,0,2,0,2,0,,,,,,,,,,,,,258.1443731999898,,,,,,,,258.1317765999993,263.127940699982,263.1279472000024,263.1444411999837,275.12843369998154,2,inactive,42.9,275.12858679998317,280.8804186999914,29.50000000000007,5.732,275.16128989998833,,,,,,,,,,,,,,,,,,,,,,,,,,,,,,,,,,,,,,sub-051,42.9,41.6,43.7,COM3,2024-08-08_11h41.04.769,2024_RDpaindiscrimination_maintask,2023.2.3,59.986886867939994,2024-08-08 11h41.26.252727 -0400,
0,0,0,0,3,0,3,0,,,,,,,,,,,,,280.89468529997976,,,,,,,,280.88120929998695,285.87821399999666,285.87822049998795,285.8948396999913,297.8786989999935,3,inactive,42.9,297.8788493000029,301.6805394999974,46.50000000000005,3.782,297.91156979999505,,,,,,,,,,,,,,,,,,,,,,,,,,,,,,,,,,,,,,sub-051,42.9,41.6,43.7,COM3,2024-08-08_11h41.04.769,2024_RDpaindiscrimination_maintask,2023.2.3,59.986886867939994,2024-08-08 11h41.26.252727 -0400,
0,0,0,0,4,0,4,0,,,,,,,,,,,,,301.69494139999733,,,,,,,,301.6812886999978,306.67849799999385,306.6785037999798,306.69504789999337,318.67890420000185,0,active,41.6,318.6790497999755,325.4649523999833,31.499999999999993,6.766,318.7118167000008,,,,,,,,,,,,,,,,,,,,,,,,,,,,,,,,,,,,,,sub-051,42.9,41.6,43.7,COM3,2024-08-08_11h41.04.769,2024_RDpaindiscrimination_maintask,2023.2.3,59.986886867939994,2024-08-08 11h41.26.252727 -0400,
0,0,0,0,5,0,5,0,,,,,,,,,,,,,325.4784444999823,,,,,,,,325.4657587999827,330.4620815999806,330.46208789999946,330.47859210000024,342.4625228999939,1,inactive,42.9,342.46266930000274,346.3136052999762,21.000000000000007,3.831,342.4954590999987,,,,,,,,,,,,,,,,,,,,,,,,,,,,,,,,,,,,,,sub-051,42.9,41.6,43.7,COM3,2024-08-08_11h41.04.769,2024_RDpaindiscrimination_maintask,2023.2.3,59.986886867939994,2024-08-08 11h41.26.252727 -0400,
0,0,0,0,6,0,6,0,,,,,,,,,,,,,346.32875929999864,,,,,,,,346.3144408999942,351.3122919999878,351.3122981999768,351.3287223999796,363.3127816999913,2,active,41.6,363.31292489997577,366.414219600003,35.49999999999998,3.081,363.34565129998373,,,,,,,,,,,,,,,,,,,,,,,,,,,,,,,,,,,,,,sub-051,42.9,41.6,43.7,COM3,2024-08-08_11h41.04.769,2024_RDpaindiscrimination_maintask,2023.2.3,59.986886867939994,2024-08-08 11h41.26.252727 -0400,
0,0,0,0,7,0,7,0,,,,,,,,,,,,,366.4290215999936,,,,,,,,366.414995500003,371.41258919998654,371.41259619998164,371.42907319997903,383.41296950000105,3,inactive,42.9,383.4131214999943,387.0139968000003,50.49999999999993,3.581,383.4458448999794,,,,,,,,,,,,,,,,,,,,,,,,,,,,,,,,,,,,,,sub-051,42.9,41.6,43.7,COM3,2024-08-08_11h41.04.769,2024_RDpaindiscrimination_maintask,2023.2.3,59.986886867939994,2024-08-08 11h41.26.252727 -0400,
0,0,0,0,8,0,8,0,,,,,,,,,,,,,387.029206599982,,,,,,,,387.01482589999796,392.0127499999944,392.0127562999842,392.0292137999786,404.01326239999617,0,inactive,42.9,404.0134097999835,408.48296039999695,51.00000000000007,4.449,404.046139699989,,,,,,,,,,,,,,,,,,,,,,,,,,,,,,,,,,,,,,sub-051,42.9,41.6,43.7,COM3,2024-08-08_11h41.04.769,2024_RDpaindiscrimination_maintask,2023.2.3,59.986886867939994,2024-08-08 11h41.26.252727 -0400,
0,0,0,0,9,0,9,0,,,,,,,,,,,,,408.4962207999779,,,,,,,,408.483783499978,413.47975040000165,413.4797564999899,413.49624149999,425.48022589998436,1,active,41.6,425.48037109998404,431.3155585999775,29.999999999999964,5.815,425.5130542999832,,,,,,,,,,,,,,,,,,,,,,,,,,,,,,,,,,,,,,sub-051,42.9,41.6,43.7,COM3,2024-08-08_11h41.04.769,2024_RDpaindiscrimination_maintask,2023.2.3,59.986886867939994,2024-08-08 11h41.26.252727 -0400,
0,0,0,0,10,0,10,0,,,,,,,,,,,,,431.32982699997956,,,,,,,,431.3163991999754,436.3133540999843,436.3133607999771,436.3298521999968,448.31446850000066,2,inactive,42.9,448.3146132999973,452.4480978999927,54.50000000000002,4.113,448.34666419998393,,,,,,,,,,,,,,,,,,,,,,,,,,,,,,,,,,,,,,sub-051,42.9,41.6,43.7,COM3,2024-08-08_11h41.04.769,2024_RDpaindiscrimination_maintask,2023.2.3,59.986886867939994,2024-08-08 11h41.26.252727 -0400,
0,0,0,0,11,0,11,0,,,,,,,,,,,,,452.46341470000334,,,,,,,,452.44887319998816,457.4469763999805,457.44698269999935,457.46344469999894,469.4474263000011,3,active,41.6,469.44757029999164,471.8156686000002,56.000000000000014,2.348,469.48025900000357,,,,,,,,,,,,,,,,,,,,,,,,,,,,,,,,,,,,,,sub-051,42.9,41.6,43.7,COM3,2024-08-08_11h41.04.769,2024_RDpaindiscrimination_maintask,2023.2.3,59.986886867939994,2024-08-08 11h41.26.252727 -0400,
0,0,0,0,12,0,12,0,,,,,,,,,,,,,471.8303287999879,,,,,,,,471.8165052999975,476.81386029999703,476.8138672999921,476.8302807,488.8143487999914,0,inactive,42.9,488.81449520000024,493.6994927999913,53.99999999999988,4.865,488.8471886999905,,,,,,,,,,,,,,,,,,,,,,,,,,,,,,,,,,,,,,sub-051,42.9,41.6,43.7,COM3,2024-08-08_11h41.04.769,2024_RDpaindiscrimination_maintask,2023.2.3,59.986886867939994,2024-08-08 11h41.26.252727 -0400,
0,0,0,0,13,0,13,0,,,,,,,,,,,,,493.7139305000019,,,,,,,,493.70030219998443,498.69750379998004,498.6975106000027,498.71396579997963,510.6978598999849,1,inactive,42.9,510.69800779997604,516.3826450999768,49.99999999999989,5.664,510.7306841999816,,,,,,,,,,,,,,,,,,,,,,,,,,,,,,,,,,,,,,sub-051,42.9,41.6,43.7,COM3,2024-08-08_11h41.04.769,2024_RDpaindiscrimination_maintask,2023.2.3,59.986886867939994,2024-08-08 11h41.26.252727 -0400,
0,0,0,0,14,0,14,0,,,,,,,,,,,,,516.3975321999751,,,,,,,,516.3834459999925,521.3811060999869,521.3811127999797,521.3975690999941,533.3816193999955,2,active,41.6,533.3817662999791,541.4175163999898,48.49999999999991,8.016,533.414334799978,,,,,,,,,,,,,,,,,,,,,,,,,,,,,,,,,,,,,,sub-051,42.9,41.6,43.7,COM3,2024-08-08_11h41.04.769,2024_RDpaindiscrimination_maintask,2023.2.3,59.986886867939994,2024-08-08 11h41.26.252727 -0400,
0,0,0,0,15,0,15,0,,,,,,,,,,,,,541.4311659999948,,,,,,,,541.4183331999811,546.4147827999841,546.4147897999792,546.4311100999766,558.4151845999877,3,active,41.6,558.4153345999948,562.4164403999748,53.999999999999915,3.981,558.4479878999991,,,,,,,,,,,,,,,,,,,,,,,,,,,,,,,,,,,,,,sub-051,42.9,41.6,43.7,COM3,2024-08-08_11h41.04.769,2024_RDpaindiscrimination_maintask,2023.2.3,59.986886867939994,2024-08-08 11h41.26.252727 -0400,
0,0,0,0,,,,,0,0,0,0,0,0,0,0,,,,,576.8648733999871,,,,,,575.8655605999811,576.848471699981,,,,,,0,active,42.9,593.8485181999858,596.2341268000018,60.0,2.365,,562.4169806999853,562.4314726000011,575.8652004999749,576.8487678999954,581.8484514000011,581.8484579999931,581.8649358999974,593.8485095999786,,,,,,,,,,,,,,,,,,,,,,,,,,,,,,sub-051,42.9,41.6,43.7,COM3,2024-08-08_11h41.04.769,2024_RDpaindiscrimination_maintask,2023.2.3,59.986886867939994,2024-08-08 11h41.26.252727 -0400,
0,0,0,0,,,,,0,0,0,0,1,0,1,0,,,,,596.2484532999806,,,,,,,,,,,,,1,inactive,42.9,613.2325362999982,620.1003676999826,60.49999999999986,6.848,,,,,596.2349252999993,601.2320444999787,601.2320512000006,601.248508699995,613.2325282999955,613.2653825999878,,,,,,,,,,,,,,,,,,,,,,,,,,,,,sub-051,42.9,41.6,43.7,COM3,2024-08-08_11h41.04.769,2024_RDpaindiscrimination_maintask,2023.2.3,59.986886867939994,2024-08-08 11h41.26.252727 -0400,
0,0,0,0,,,,,0,0,0,0,,,,,0,0,0,0,621.6154099999985,,,,,,,,,,,,,2,inactive,,,,,,,,,,,,,,,,620.1005691000028,621.5990829999791,621.5994074999762,626.5990355999966,626.5990422999894,626.6154537999828,634.5990514000005,634.5990514000005,637.5656192000024,637.5989493999805,637.5989493999805,637.582470399997,4.58,4.22,458,422,8,1.2,0.75,pic-absent,1,n,0.4045509999850765,None,,,,,sub-051,42.9,41.6,43.7,COM3,2024-08-08_11h41.04.769,2024_RDpaindiscrimination_maintask,2023.2.3,59.986886867939994,2024-08-08 11h41.26.252727 -0400,
0,0,0,0,,,,,0,0,0,0,,,,,1,0,1,0,637.5989493999805,,,,,,,,,,,,,3,active,,,,,,,,,,,,,,,,,,637.5830778999953,642.5825280999998,642.5825355999987,642.5989841999835,650.5825250999769,650.5825250999769,653.5491471999849,653.5825271999929,653.5825271999929,653.5660157999955,4.62,4.18,462,418,8,1.2,0.75,pic-present,1,n,0.7852209999982733,None,,,,,sub-051,42.9,41.6,43.7,COM3,2024-08-08_11h41.04.769,2024_RDpaindiscrimination_maintask,2023.2.3,59.986886867939994,2024-08-08 11h41.26.252727 -0400,
0,0,0,0,,,,,0,0,0,0,,,,,2,0,2,0,653.5825271999929,,,,,,,,,,,,,0,active,,,,,,,,,,,,,,,,,,653.5664911999775,658.5660531999893,658.5660604999866,658.582619599998,666.5660515999771,666.5660515999771,669.5326796000008,669.566010599985,669.566010599985,669.5495803999947,4.12,4.68,412,468,8,1.2,0.75,pic-present,0,m,0.4690664999943692,None,,,,,sub-051,42.9,41.6,43.7,COM3,2024-08-08_11h41.04.769,2024_RDpaindiscrimination_maintask,2023.2.3,59.986886867939994,2024-08-08 11h41.26.252727 -0400,
0,0,0,0,,,,,0,0,0,0,,,,,3,0,3,0,669.566010599985,,,,,,,,,,,,,1,inactive,,,,,,,,,,,,,,,,,,669.5501072999905,674.5496115999995,674.5496176999877,674.5660439999774,682.5495077999949,682.5495077999949,685.5162104999763,685.5495409999858,685.5495409999858,685.5330633999838,4.67,4.13,467,413,8,1.2,0.75,pic-absent,0,m,0.4740514000004623,None,,,,,sub-051,42.9,41.6,43.7,COM3,2024-08-08_11h41.04.769,2024_RDpaindiscrimination_maintask,2023.2.3,59.986886867939994,2024-08-08 11h41.26.252727 -0400,
0,0,0,0,,,,,1,0,1,0,0,0,0,0,,,,,687.8830029999954,,,,,,685.5335837999883,687.8665519999922,,,,,,2,inactive,42.9,704.8666184999747,708.3358183999953,66.4999999999999,3.39,,,,,687.866881599999,692.8665373999975,692.8665440999903,692.8830310999765,704.8666104000004,,,,,,,,,,,,,,,,,,,,,,,,,,,,,,sub-051,42.9,41.6,43.7,COM3,2024-08-08_11h41.04.769,2024_RDpaindiscrimination_maintask,2023.2.3,59.986886867939994,2024-08-08 11h41.26.252727 -0400,
0,0,0,0,,,,,1,0,1,0,1,0,1,0,,,,,708.349948499992,,,,,,,,,,,,,3,active,42.9,725.3339788999874,729.3691434999928,57.00000000000004,4.015,,,,,708.336584899982,713.3334616999782,713.3334687000024,713.3499751999916,725.3339708999847,725.3667123999912,,,,,,,,,,,,,,,,,,,,,,,,,,,,,sub-051,42.9,41.6,43.7,COM3,2024-08-08_11h41.04.769,2024_RDpaindiscrimination_maintask,2023.2.3,59.986886867939994,2024-08-08 11h41.26.252727 -0400,
0,0,0,0,,,,,1,0,1,0,,,,,0,0,0,0,731.1835178999754,,,,,,,,,,,,,0,active,,,,,,,,,,,,,,,,729.3697160999873,731.1672355999763,731.1675733999873,736.1670735999942,736.1670807999908,736.1835450999788,744.1670441000024,744.1670441000024,747.1337199999834,747.1671070999873,747.1671070999873,747.1505800999876,4.7,4.1,470,409,8,1.2,0.75,pic-absent,1,n,0.6535914999840315,None,,,,,sub-051,42.9,41.6,43.7,COM3,2024-08-08_11h41.04.769,2024_RDpaindiscrimination_maintask,2023.2.3,59.986886867939994,2024-08-08 11h41.26.252727 -0400,
0,0,0,0,,,,,1,0,1,0,,,,,1,0,1,0,747.1671070999873,,,,,,,,,,,,,1,inactive,,,,,,,,,,,,,,,,,,747.1511532999866,752.15061099999,752.1506178999844,752.1671237999981,760.1505375999841,760.1505375999841,763.1172532999772,763.1505834999844,763.1505834999844,763.1340947999852,3.78,5.02,378,501,8,1.2,0.75,pic-present,1,n,0.6134195000049658,None,,,,,sub-051,42.9,41.6,43.7,COM3,2024-08-08_11h41.04.769,2024_RDpaindiscrimination_maintask,2023.2.3,59.986886867939994,2024-08-08 11h41.26.252727 -0400,
0,0,0,0,,,,,1,0,1,0,,,,,2,0,2,0,763.1505834999844,,,,,,,,,,,,,2,active,,,,,,,,,,,,,,,,,,763.1345635999751,768.1341102999868,768.1341175999842,768.1506028999866,776.1340408999822,776.1340408999822,779.1007398999936,779.1340733999969,779.1340733999969,779.1175821999786,4.01,4.79,401,479,8,1.2,0.75,pic-absent,1,n,0.485757399990689,None,,,,,sub-051,42.9,41.6,43.7,COM3,2024-08-08_11h41.04.769,2024_RDpaindiscrimination_maintask,2023.2.3,59.986886867939994,2024-08-08 11h41.26.252727 -0400,
0,0,0,0,,,,,1,0,1,0,,,,,3,0,3,0,779.1340733999969,,,,,,,,,,,,,3,active,,,,,,,,,,,,,,,,,,779.1180842999893,784.1176425000012,784.1176504999748,784.1340841999918,792.1175226999912,792.1175226999912,795.0842676999746,795.1176517999847,795.1176517999847,795.1011227999988,4.66,4.14,466,413,8,1.2,0.75,pic-present,1,n,0.9148032999946736,None,,,,,sub-051,42.9,41.6,43.7,COM3,2024-08-08_11h41.04.769,2024_RDpaindiscrimination_maintask,2023.2.3,59.986886867939994,2024-08-08 11h41.26.252727 -0400,
0,0,0,0,,,,,2,0,2,0,0,0,0,0,,,,,795.7009445999865,,,,,,795.101634199993,795.6845367999922,,,,,,0,active,42.9,812.6848685999867,819.0539831999922,12.0000000000001,6.35,,,,,795.6848429999955,800.6845305000024,800.6845369999937,800.7010173999879,812.6848606999847,812.7178521000023,,,,,,,,,,,,,,,,,,,,,,,,,,,,,sub-051,42.9,41.6,43.7,COM3,2024-08-08_11h41.04.769,2024_RDpaindiscrimination_maintask,2023.2.3,59.986886867939994,2024-08-08 11h41.26.252727 -0400,
0,0,0,0,,,,,2,0,2,0,1,0,1,0,,,,,819.0678519999783,,,,,,,,,,,,,1,inactive,42.9,836.0519060999795,839.2533410000033,35.500000000000014,3.181,,,,,819.0547030000016,824.0514626999793,824.0514696000027,824.0679573999951,836.0518983999791,836.0847982999985,,,,,,,,,,,,,,,,,,,,,,,,,,,,,sub-051,42.9,41.6,43.7,COM3,2024-08-08_11h41.04.769,2024_RDpaindiscrimination_maintask,2023.2.3,59.986886867939994,2024-08-08 11h41.26.252727 -0400,
0,0,0,0,,,,,2,0,2,0,,,,,0,0,0,0,840.9681939999864,,,,,,,,,,,,,2,inactive,,,,,,,,,,,,,,,,839.253855899995,840.9519159999909,840.9522488999937,845.9519066999783,845.9519138000032,845.9681546999782,853.9516918000008,853.9516918000008,856.9182893999969,856.9517182999989,856.9517182999989,856.9351959999767,3.41,5.39,341,539,8,1.2,0.75,pic-present,1,n,0.4716871999844443,None,,,,,sub-051,42.9,41.6,43.7,COM3,2024-08-08_11h41.04.769,2024_RDpaindiscrimination_maintask,2023.2.3,59.986886867939994,2024-08-08 11h41.26.252727 -0400,
0,0,0,0,,,,,2,0,2,0,,,,,1,0,1,0,856.9517182999989,,,,,,,,,,,,,3,active,,,,,,,,,,,,,,,,,,856.9357571,861.9352470999875,861.9352544999856,861.9517211999919,869.9352259000007,869.9352259000007,872.9020045999787,872.9352670999942,872.9352670999942,872.9187776999897,4.69,4.11,469,411,8,1.2,0.75,pic-absent,0,m,0.760328699980164,None,,,,,sub-051,42.9,41.6,43.7,COM3,2024-08-08_11h41.04.769,2024_RDpaindiscrimination_maintask,2023.2.3,59.986886867939994,2024-08-08 11h41.26.252727 -0400,
0,0,0,0,,,,,2,0,2,0,,,,,2,0,2,0,872.9352670999942,,,,,,,,,,,,,0,inactive,,,,,,,,,,,,,,,,,,872.9192937999906,877.9188599999761,877.9188676999765,877.935321500001,885.9186364999914,885.9186364999914,888.885372299992,888.9186783999903,888.9186783999903,888.9021868999989,3.77,5.03,377,503,8,1.2,0.75,pic-present,1,n,2.1259526000067126,None,,,,,sub-051,42.9,41.6,43.7,COM3,2024-08-08_11h41.04.769,2024_RDpaindiscrimination_maintask,2023.2.3,59.986886867939994,2024-08-08 11h41.26.252727 -0400,
0,0,0,0,,,,,2,0,2,0,,,,,3,0,3,0,888.9186783999903,,,,,,,,,,,,,1,active,,,,,,,,,,,,,,,,,,888.9026583999803,893.9023009999946,893.9023084999935,893.9187449000019,901.90219969998,901.90219969998,904.8689548999828,904.9022028999752,904.9022028999752,904.8857609999832,4.74,4.06,474,405,8,1.2,0.75,pic-absent,1,n,0.7694078999920748,None,,,,,sub-051,42.9,41.6,43.7,COM3,2024-08-08_11h41.04.769,2024_RDpaindiscrimination_maintask,2023.2.3,59.986886867939994,2024-08-08 11h41.26.252727 -0400,
0,0,0,0,,,,,3,0,3,0,0,0,0,0,,,,,905.4355426999973,,,,,,904.8862630999938,905.4191819999833,,,,,,2,inactive,42.9,922.4194617999892,929.237055799982,59.99999999999989,6.797,,,,,905.419480099983,910.4191594999866,910.4191663999809,910.4356253999867,922.4194538999873,922.4523764999758,,,,,,,,,,,,,,,,,,,,,,,,,,,,,sub-051,42.9,41.6,43.7,COM3,2024-08-08_11h41.04.769,2024_RDpaindiscrimination_maintask,2023.2.3,59.986886867939994,2024-08-08 11h41.26.252727 -0400,
0,0,0,0,,,,,3,0,3,0,1,0,1,0,,,,,929.2525360999862,,,,,,,,,,,,,3,active,42.9,946.2364063999848,950.8058673999913,58.50000000000008,4.55,,,,,929.2373025999987,934.2361971999926,934.2362036999839,934.2525649000017,946.2363984999829,946.269447300001,,,,,,,,,,,,,,,,,,,,,,,,,,,,,sub-051,42.9,41.6,43.7,COM3,2024-08-08_11h41.04.769,2024_RDpaindiscrimination_maintask,2023.2.3,59.986886867939994,2024-08-08 11h41.26.252727 -0400,
0,0,0,0,,,,,3,0,3,0,,,,,0,0,0,0,953.2027935999795,,,,,,,,,,,,,0,active,,,,,,,,,,,,,,,,950.806374799984,953.1863869999943,953.1867159999965,958.1863660999807,958.1863732999773,958.2029352999816,966.1862874999933,966.1862874999933,969.1529945999791,969.1863482999906,969.1863482999906,969.169839899987,3.99,4.81,399,480,8,1.2,0.75,pic-present,0,m,0.689736800006358,None,,,,,sub-051,42.9,41.6,43.7,COM3,2024-08-08_11h41.04.769,2024_RDpaindiscrimination_maintask,2023.2.3,59.986886867939994,2024-08-08 11h41.26.252727 -0400,
0,0,0,0,,,,,3,0,3,0,,,,,1,0,1,0,969.1863482999906,,,,,,,,,,,,,1,inactive,,,,,,,,,,,,,,,,,,969.1704230000032,974.1699438999931,974.1699507999874,974.1864398999896,982.1698879000032,982.1698879000032,985.1365896999778,985.1698882999772,985.1698882999772,985.1534337999765,3.68,5.12,368,512,8,1.2,0.75,pic-absent,0,m,1.4058960999827832,None,,,,,sub-051,42.9,41.6,43.7,COM3,2024-08-08_11h41.04.769,2024_RDpaindiscrimination_maintask,2023.2.3,59.986886867939994,2024-08-08 11h41.26.252727 -0400,
0,0,0,0,,,,,3,0,3,0,,,,,2,0,2,0,985.1698882999772,,,,,,,,,,,,,2,inactive,,,,,,,,,,,,,,,,,,985.1539084999822,990.1534695999871,990.1534767999838,990.1699155999813,998.153422000003,998.153422000003,1001.1200530999922,1001.153384699981,1001.153384699981,1001.1369405000005,4.7,4.1,470,409,8,1.2,0.75,pic-absent,1,n,0.522919599985471,None,,,,,sub-051,42.9,41.6,43.7,COM3,2024-08-08_11h41.04.769,2024_RDpaindiscrimination_maintask,2023.2.3,59.986886867939994,2024-08-08 11h41.26.252727 -0400,
0,0,0,0,,,,,3,0,3,0,,,,,3,0,3,0,1001.153384699981,,,,,,,,,,,,,3,inactive,,,,,,,,,,,,,,,,,,1001.1374171999923,1006.1370196999924,1006.137027299992,1006.1534709999978,1014.136929100001,1014.136929100001,1017.1036606999987,1017.136915399984,1017.136915399984,1017.1205383999913,3.39,5.41,339,541,8,1.2,0.75,pic-present,0,m,0.7185754000092857,None,,,,,sub-051,42.9,41.6,43.7,COM3,2024-08-08_11h41.04.769,2024_RDpaindiscrimination_maintask,2023.2.3,59.986886867939994,2024-08-08 11h41.26.252727 -0400,
1,0,1,0,0,0,0,0,,,,,,,,,,,,,1087.8878764999972,,,,1082.7715392999817,1083.3046568999998,1083.3046677999955,1087.8713986999937,1087.8717078999907,1092.8713874999958,1092.8713946999924,1092.8878861999838,1104.8714679999975,0,inactive,42.9,1104.871716099995,1107.8239417999866,48.49999999999997,2.928,,,,,,,,,,,,,,,,,,,,,,,,,,,,,,,,,,,1017.1210026999761,1082.7714136999857,,,sub-051,42.9,41.6,43.7,COM3,2024-08-08_11h41.04.769,2024_RDpaindiscrimination_maintask,2023.2.3,59.986886867939994,2024-08-08 11h41.26.252727 -0400,
1,0,1,0,1,0,1,0,,,,,,,,,,,,,1107.8381406999833,,,,,,,,1107.8244162999908,1112.8216585999762,1112.8216651999974,1112.838193099975,1124.8220510999963,1,active,41.6,1124.822199999995,1129.8246915999916,42.99999999999996,4.983,1124.854910199996,,,,,,,,,,,,,,,,,,,,,,,,,,,,,,,,,,,,,,sub-051,42.9,41.6,43.7,COM3,2024-08-08_11h41.04.769,2024_RDpaindiscrimination_maintask,2023.2.3,59.986886867939994,2024-08-08 11h41.26.252727 -0400,
1,0,1,0,2,0,2,0,,,,,,,,,,,,,1129.8382960000017,,,,,,,,1129.8255139999965,1134.8218450999993,1134.8218511999876,1134.8384514999925,1146.822500499984,2,inactive,42.9,1146.8226503999904,1152.5414721999841,42.000000000000135,5.699,1146.8552756999852,,,,,,,,,,,,,,,,,,,,,,,,,,,,,,,,,,,,,,sub-051,42.9,41.6,43.7,COM3,2024-08-08_11h41.04.769,2024_RDpaindiscrimination_maintask,2023.2.3,59.986886867939994,2024-08-08 11h41.26.252727 -0400,
1,0,1,0,3,0,3,0,,,,,,,,,,,,,1152.5553528000019,,,,,,,,1152.5422250999836,1157.5389123999921,1157.5389185999811,1157.5554100000008,1169.539401099988,3,active,41.6,1169.5395486999769,1173.5080807999766,35.50000000000005,3.949,1169.5721589000023,,,,,,,,,,,,,,,,,,,,,,,,,,,,,,,,,,,,,,sub-051,42.9,41.6,43.7,COM3,2024-08-08_11h41.04.769,2024_RDpaindiscrimination_maintask,2023.2.3,59.986886867939994,2024-08-08 11h41.26.252727 -0400,
1,0,1,0,4,0,4,0,,,,,,,,,,,,,1173.5222136999946,,,,,,,,1173.5088735999889,1178.5058052999957,1178.5058112999832,1178.5223496999824,1190.5062945999962,0,inactive,42.9,1190.5064571999828,1195.6906571,34.00000000000009,5.165,1190.5391539999982,,,,,,,,,,,,,,,,,,,,,,,,,,,,,,,,,,,,,,sub-051,42.9,41.6,43.7,COM3,2024-08-08_11h41.04.769,2024_RDpaindiscrimination_maintask,2023.2.3,59.986886867939994,2024-08-08 11h41.26.252727 -0400,
1,0,1,0,5,0,5,0,,,,,,,,,,,,,1195.705804999976,,,,,,,,1195.6914284999948,1200.689426099998,1200.6894321999862,1200.7058736000035,1212.6899224999943,1,inactive,42.9,1212.690065999981,1216.7749454999866,13.000000000000004,4.065,1212.7227190999838,,,,,,,,,,,,,,,,,,,,,,,,,,,,,,,,,,,,,,sub-051,42.9,41.6,43.7,COM3,2024-08-08_11h41.04.769,2024_RDpaindiscrimination_maintask,2023.2.3,59.986886867939994,2024-08-08 11h41.26.252727 -0400,
1,0,1,0,6,0,6,0,,,,,,,,,,,,,1216.789474099991,,,,,,,,1216.775744899991,1221.7729766999837,1221.772983199975,1221.7894656999852,1233.773557699984,2,active,41.6,1233.773720999976,1237.8922244999849,49.99999999999989,4.099,1233.806305599981,,,,,,,,,,,,,,,,,,,,,,,,,,,,,,,,,,,,,,sub-051,42.9,41.6,43.7,COM3,2024-08-08_11h41.04.769,2024_RDpaindiscrimination_maintask,2023.2.3,59.986886867939994,2024-08-08 11h41.26.252727 -0400,
1,0,1,0,7,0,7,0,,,,,,,,,,,,,1237.9064052999893,,,,,,,,1237.8930262999784,1242.8899371000007,1242.8899433999904,1242.9064827999973,1254.8904242999852,3,inactive,42.9,1254.890570299991,1261.2600106000027,39.50000000000007,6.35,1254.923280099989,,,,,,,,,,,,,,,,,,,,,,,,,,,,,,,,,,,,,,sub-051,42.9,41.6,43.7,COM3,2024-08-08_11h41.04.769,2024_RDpaindiscrimination_maintask,2023.2.3,59.986886867939994,2024-08-08 11h41.26.252727 -0400,
1,0,1,0,8,0,8,0,,,,,,,,,,,,,1261.273382399988,,,,,,,,1261.2607985999784,1266.2569049999875,1266.2569112999772,1266.273391900002,1278.257441099995,0,active,41.6,1278.257589099987,1284.2743560999807,32.000000000000135,5.997,1278.2902281999995,,,,,,,,,,,,,,,,,,,,,,,,,,,,,,,,,,,,,,sub-051,42.9,41.6,43.7,COM3,2024-08-08_11h41.04.769,2024_RDpaindiscrimination_maintask,2023.2.3,59.986886867939994,2024-08-08 11h41.26.252727 -0400,
1,0,1,0,9,0,9,0,,,,,,,,,,,,,1284.2902766999905,,,,,,,,1284.2746055999887,1289.2738928000035,1289.2738992999948,1289.2903412999876,1301.274345599988,1,active,41.6,1301.2744938999822,1305.1434171999863,26.000000000000085,3.849,1301.3072312999866,,,,,,,,,,,,,,,,,,,,,,,,,,,,,,,,,,,,,,sub-051,42.9,41.6,43.7,COM3,2024-08-08_11h41.04.769,2024_RDpaindiscrimination_maintask,2023.2.3,59.986886867939994,2024-08-08 11h41.26.252727 -0400,
1,0,1,0,10,0,10,0,,,,,,,,,,,,,1305.1572031999822,,,,,,,,1305.1441715999972,1310.1407685999875,1310.1407748999773,1310.1573130000033,1322.1412185999798,2,inactive,42.9,1322.1413663999992,1325.793196899991,56.49999999999994,3.632,1322.174097399984,,,,,,,,,,,,,,,,,,,,,,,,,,,,,,,,,,,,,,sub-051,42.9,41.6,43.7,COM3,2024-08-08_11h41.04.769,2024_RDpaindiscrimination_maintask,2023.2.3,59.986886867939994,2024-08-08 11h41.26.252727 -0400,
1,0,1,0,11,0,11,0,,,,,,,,,,,,,1325.8073435999977,,,,,,,,1325.7938402,1330.7909385999956,1330.7909453999891,1330.8074282000016,1342.791499599989,3,inactive,42.9,1342.7916495999962,1346.4772544000007,68.00000000000004,3.666,1342.8243698999868,,,,,,,,,,,,,,,,,,,,,,,,,,,,,,,,,,,,,,sub-051,42.9,41.6,43.7,COM3,2024-08-08_11h41.04.769,2024_RDpaindiscrimination_maintask,2023.2.3,59.986886867939994,2024-08-08 11h41.26.252727 -0400,
1,0,1,0,12,0,12,0,,,,,,,,,,,,,1346.4910684999777,,,,,,,,1346.4780332999944,1351.4746499999892,1351.4746561999782,1351.4910959999834,1363.4751178000006,0,active,41.6,1363.4752633000026,1370.4950223999913,13.500000000000137,7.0,1363.5079410999897,,,,,,,,,,,,,,,,,,,,,,,,,,,,,,,,,,,,,,sub-051,42.9,41.6,43.7,COM3,2024-08-08_11h41.04.769,2024_RDpaindiscrimination_maintask,2023.2.3,59.986886867939994,2024-08-08 11h41.26.252727 -0400,
1,0,1,0,13,0,13,0,,,,,,,,,,,,,1370.5079922000004,,,,,,,,1370.4958382999757,1375.4917080999876,1375.4917145999789,1375.5081036999763,1387.4920642999932,1,inactive,42.9,1387.4922112999775,1392.6100574999873,41.49999999999996,5.098,1387.5249118999927,,,,,,,,,,,,,,,,,,,,,,,,,,,,,,,,,,,,,,sub-051,42.9,41.6,43.7,COM3,2024-08-08_11h41.04.769,2024_RDpaindiscrimination_maintask,2023.2.3,59.986886867939994,2024-08-08 11h41.26.252727 -0400,
1,0,1,0,14,0,14,0,,,,,,,,,,,,,1392.6248939999787,,,,,,,,1392.610832299979,1397.6084664999798,1397.608473499975,1397.6249496999953,1409.6089892000018,2,active,41.6,1409.609136199986,1414.411354299984,29.50000000000007,4.782,1409.6418516999984,,,,,,,,,,,,,,,,,,,,,,,,,,,,,,,,,,,,,,sub-051,42.9,41.6,43.7,COM3,2024-08-08_11h41.04.769,2024_RDpaindiscrimination_maintask,2023.2.3,59.986886867939994,2024-08-08 11h41.26.252727 -0400,
1,0,1,0,15,0,15,0,,,,,,,,,,,,,1414.4252416999952,,,,,,,,1414.412111099984,1419.4087024999899,1419.4087083999766,1419.4253317999828,1431.4092601999873,3,active,41.6,1431.4094093999884,1436.5459143999906,53.0000000000001,5.117,1431.4421172000002,,,,,,,,,,,,,,,,,,,,,,,,,,,,,,,,,,,,,,sub-051,42.9,41.6,43.7,COM3,2024-08-08_11h41.04.769,2024_RDpaindiscrimination_maintask,2023.2.3,59.986886867939994,2024-08-08 11h41.26.252727 -0400,
1,0,1,0,,,,,0,0,0,0,0,0,0,0,,,,,1451.2922728999984,,,,,,1449.8097019999987,1451.2759266999783,,,,,,0,inactive,42.9,1468.276390599989,1470.6276638999989,60.0,2.332,,1436.5465044000011,1436.5587769999984,1449.8093692999973,1451.2762281000032,1456.275831499981,1456.2758380000014,1456.2923336999957,1468.2763824999856,1468.3092401999747,,,,,,,,,,,,,,,,,,,,,,,,,,,,,sub-051,42.9,41.6,43.7,COM3,2024-08-08_11h41.04.769,2024_RDpaindiscrimination_maintask,2023.2.3,59.986886867939994,2024-08-08 11h41.26.252727 -0400,
1,0,1,0,,,,,0,0,0,0,1,0,1,0,,,,,1470.6425046999939,,,,,,,,,,,,,1,active,42.9,1487.6266209000023,1494.5292178999807,63.49999999999986,6.883,,,,,1470.6284240999958,1475.626133599988,1475.62614019998,1475.6425650999881,1487.6266131000011,1487.6594872999995,,,,,,,,,,,,,,,,,,,,,,,,,,,,,sub-051,42.9,41.6,43.7,COM3,2024-08-08_11h41.04.769,2024_RDpaindiscrimination_maintask,2023.2.3,59.986886867939994,2024-08-08 11h41.26.252727 -0400,
1,0,1,0,,,,,0,0,0,0,,,,,0,0,0,0,1496.259494799975,,,,,,,,,,,,,2,active,,,,,,,,,,,,,,,,1494.5297564999782,1496.2431619999988,1496.2434776999871,1501.2430525999807,1501.2430595999758,1501.2595788000035,1509.2430361000006,1509.2430361000006,1512.2096478999883,1512.2429751000018,1512.2429751000018,1512.2265966999985,4.73,4.07,473,407,8,1.2,0.75,pic-present,1,n,0.4129784999822732,None,,,,,sub-051,42.9,41.6,43.7,COM3,2024-08-08_11h41.04.769,2024_RDpaindiscrimination_maintask,2023.2.3,59.986886867939994,2024-08-08 11h41.26.252727 -0400,
1,0,1,0,,,,,0,0,0,0,,,,,1,0,1,0,1512.2429751000018,,,,,,,,,,,,,3,active,,,,,,,,,,,,,,,,,,1512.2271615999925,1517.2265415999864,1517.2265488999838,1517.2431062999822,1525.2265155999921,1525.2265155999921,1528.1931777999853,1528.2265121999953,1528.2265121999953,1528.2100286999776,3.72,5.08,372,508,8,1.2,0.75,pic-absent,0,m,0.7503099000023212,None,,,,,sub-051,42.9,41.6,43.7,COM3,2024-08-08_11h41.04.769,2024_RDpaindiscrimination_maintask,2023.2.3,59.986886867939994,2024-08-08 11h41.26.252727 -0400,
1,0,1,0,,,,,0,0,0,0,,,,,2,0,2,0,1528.2265121999953,,,,,,,,,,,,,0,inactive,,,,,,,,,,,,,,,,,,1528.210528399999,1533.2100661000004,1533.210073299997,1533.226565399993,1541.2100028999848,1541.2100028999848,1544.1767099999997,1544.2100432000007,1544.2100432000007,1544.1935605999897,4.58,4.22,458,422,8,1.2,0.75,pic-present,1,n,0.5224354999954812,None,,,,,sub-051,42.9,41.6,43.7,COM3,2024-08-08_11h41.04.769,2024_RDpaindiscrimination_maintask,2023.2.3,59.986886867939994,2024-08-08 11h41.26.252727 -0400,
1,0,1,0,,,,,0,0,0,0,,,,,3,0,3,0,1544.2100432000007,,,,,,,,,,,,,1,inactive,,,,,,,,,,,,,,,,,,1544.1941327999812,1549.1935979999835,1549.1936048999778,1549.2101033999934,1557.1935317000025,1557.1935317000025,1560.160238099983,1560.1935787999828,1560.1935787999828,1560.1770889999752,3.67,5.13,367,513,8,1.2,0.75,pic-absent,1,n,0.5787004999874625,None,,,,,sub-051,42.9,41.6,43.7,COM3,2024-08-08_11h41.04.769,2024_RDpaindiscrimination_maintask,2023.2.3,59.986886867939994,2024-08-08 11h41.26.252727 -0400,
1,0,1,0,,,,,1,0,1,0,0,0,0,0,,,,,1560.910254699993,,,,,,1560.1776103999873,1560.893861199991,,,,,,2,active,42.9,1577.8941930999863,1579.929913400003,60.0,2.017,,,,,1560.8941720000003,1565.8937993999862,1565.8938067999843,1565.9103650999896,1577.8941851999843,1577.9271589999844,,,,,,,,,,,,,,,,,,,,,,,,,,,,,sub-051,42.9,41.6,43.7,COM3,2024-08-08_11h41.04.769,2024_RDpaindiscrimination_maintask,2023.2.3,59.986886867939994,2024-08-08 11h41.26.252727 -0400,
1,0,1,0,,,,,1,0,1,0,1,0,1,0,,,,,1579.9439176000014,,,,,,,,,,,,,3,inactive,42.9,1596.9278877000033,1600.579144999996,66.4999999999999,3.632,,,,,1579.9306425999966,1584.9274033999827,1584.9274099999748,1584.9439717999776,1596.9278801999753,1596.9607291999855,,,,,,,,,,,,,,,,,,,,,,,,,,,,,sub-051,42.9,41.6,43.7,COM3,2024-08-08_11h41.04.769,2024_RDpaindiscrimination_maintask,2023.2.3,59.986886867939994,2024-08-08 11h41.26.252727 -0400,
1,0,1,0,,,,,1,0,1,0,,,,,0,0,0,0,1602.1774597999756,,,,,,,,,,,,,0,active,,,,,,,,,,,,,,,,1600.5796675999882,1602.1610654999968,1602.1613733999839,1607.1610229999933,1607.1610302999907,1607.177523099992,1615.161053399992,1615.161053399992,1618.1276933999907,1618.1610128999746,1618.1610128999746,1618.14450569998,3.32,5.48,332,548,8,1.2,0.75,pic-absent,0,m,0.5961796999908984,None,,,,,sub-051,42.9,41.6,43.7,COM3,2024-08-08_11h41.04.769,2024_RDpaindiscrimination_maintask,2023.2.3,59.986886867939994,2024-08-08 11h41.26.252727 -0400,
1,0,1,0,,,,,1,0,1,0,,,,,1,0,1,0,1618.1610128999746,,,,,,,,,,,,,1,inactive,,,,,,,,,,,,,,,,,,1618.1450974999752,1623.1445389,1623.1445457999944,1623.1610435999755,1631.1444691999932,1631.1444691999932,1634.1111837999779,1634.1445138999843,1634.1445138999843,1634.128035200003,3.55,5.25,355,525,8,1.2,0.75,pic-present,0,m,0.7491661999956705,None,,,,,sub-051,42.9,41.6,43.7,COM3,2024-08-08_11h41.04.769,2024_RDpaindiscrimination_maintask,2023.2.3,59.986886867939994,2024-08-08 11h41.26.252727 -0400,
1,0,1,0,,,,,1,0,1,0,,,,,2,0,2,0,1634.1445138999843,,,,,,,,,,,,,2,active,,,,,,,,,,,,,,,,,,1634.1285589999752,1639.12810859998,1639.1281155000033,1639.1445776999753,1647.1280087999767,1647.1280087999767,1650.0947142999794,1650.1280474999803,1650.1280474999803,1650.111606499995,3.42,5.38,342,538,8,1.2,0.75,pic-absent,0,m,1.364696999982698,None,,,,,sub-051,42.9,41.6,43.7,COM3,2024-08-08_11h41.04.769,2024_RDpaindiscrimination_maintask,2023.2.3,59.986886867939994,2024-08-08 11h41.26.252727 -0400,
1,0,1,0,,,,,1,0,1,0,,,,,3,0,3,0,1650.1280474999803,,,,,,,,,,,,,3,active,,,,,,,,,,,,,,,,,,1650.112075699988,1655.1116003999778,1655.111606999999,1655.1281149999995,1663.1115387000027,1663.1115387000027,1666.0782417999872,1666.1115779999818,1666.1115779999818,1666.0950897999865,4.33,4.47,433,447,8,1.2,0.75,pic-absent,0,m,0.5773740999866277,None,,,,,sub-051,42.9,41.6,43.7,COM3,2024-08-08_11h41.04.769,2024_RDpaindiscrimination_maintask,2023.2.3,59.986886867939994,2024-08-08 11h41.26.252727 -0400,
1,0,1,0,,,,,2,0,2,0,0,0,0,0,,,,,1666.7449222999858,,,,,,1666.0955871999904,1666.7285152999975,,,,,,0,active,42.9,1683.7289765999885,1687.3303819999855,65.99999999999991,3.582,,,,,1666.7288075999822,1671.7284836999897,1671.7284904999833,1671.7449828999816,1683.7289687999873,1683.7617838000006,,,,,,,,,,,,,,,,,,,,,,,,,,,,,sub-051,42.9,41.6,43.7,COM3,2024-08-08_11h41.04.769,2024_RDpaindiscrimination_maintask,2023.2.3,59.986886867939994,2024-08-08 11h41.26.252727 -0400,
1,0,1,0,,,,,2,0,2,0,1,0,1,0,,,,,1687.345167899999,,,,,,,,,,,,,1,inactive,42.9,1704.3290539000009,1709.2811696999997,60.0,4.823,,,,,1687.331112499989,1692.3287112999824,1692.3287182999775,1692.3452317999909,1704.329046400002,1704.4620423000015,,,,,,,,,,,,,,,,,,,,,,,,,,,,,sub-051,42.9,41.6,43.7,COM3,2024-08-08_11h41.04.769,2024_RDpaindiscrimination_maintask,2023.2.3,59.986886867939994,2024-08-08 11h41.26.252727 -0400,
1,0,1,0,,,,,2,0,2,0,,,,,0,0,0,0,1711.0289188000024,,,,,,,,,,,,,2,inactive,,,,,,,,,,,,,,,,1709.281714199984,1711.0123743999866,1711.012723199994,1716.012341499998,1716.0123483999923,1716.0288867999916,1724.012291799998,1724.012291799998,1726.9789914999856,1727.0123350999784,1727.0123350999784,1726.995838199975,3.43,5.37,343,537,8,1.2,0.75,pic-present,1,n,1.7722948000009637,None,,,,,sub-051,42.9,41.6,43.7,COM3,2024-08-08_11h41.04.769,2024_RDpaindiscrimination_maintask,2023.2.3,59.986886867939994,2024-08-08 11h41.26.252727 -0400,
1,0,1,0,,,,,2,0,2,0,,,,,1,0,1,0,1727.0123350999784,,,,,,,,,,,,,3,inactive,,,,,,,,,,,,,,,,,,1726.9963903999887,1731.9959236999857,1731.9959310999839,1732.0123901999905,1739.9958869999973,1739.9958869999973,1742.9625388999993,1742.995855999994,1742.995855999994,1742.9793642000004,3.41,5.39,341,539,8,1.2,0.75,pic-absent,0,m,1.641167800000403,None,,,,,sub-051,42.9,41.6,43.7,COM3,2024-08-08_11h41.04.769,2024_RDpaindiscrimination_maintask,2023.2.3,59.986886867939994,2024-08-08 11h41.26.252727 -0400,
1,0,1,0,,,,,2,0,2,0,,,,,2,0,2,0,1742.995855999994,,,,,,,,,,,,,0,active,,,,,,,,,,,,,,,,,,1742.9798343000002,1747.9794073999801,1747.9794191999827,1747.9959644999763,1755.9793741999893,1755.9793741999893,1758.9460506000032,1758.9793816999882,1758.9793816999882,1758.9628980999987,3.39,5.41,339,541,8,1.2,0.75,pic-present,0,m,1.273289400007343,None,,,,,sub-051,42.9,41.6,43.7,COM3,2024-08-08_11h41.04.769,2024_RDpaindiscrimination_maintask,2023.2.3,59.986886867939994,2024-08-08 11h41.26.252727 -0400,
1,0,1,0,,,,,2,0,2,0,,,,,3,0,3,0,1758.9793816999882,,,,,,,,,,,,,1,inactive,,,,,,,,,,,,,,,,,,1758.9633693999785,1763.9629681999795,1763.9629752999754,1763.9794888999895,1771.9629686999833,1771.9629686999833,1774.9296864999924,1774.9630117999914,1774.9630117999914,1774.9465325999772,3.42,5.38,342,538,8,1.2,0.75,pic-present,0,m,0.5294040000007953,None,,,,,sub-051,42.9,41.6,43.7,COM3,2024-08-08_11h41.04.769,2024_RDpaindiscrimination_maintask,2023.2.3,59.986886867939994,2024-08-08 11h41.26.252727 -0400,
1,0,1,0,,,,,3,0,3,0,0,0,0,0,,,,,1775.8796815999958,,,,,,1774.9470591999998,1775.8633805999998,,,,,,2,inactive,42.9,1792.863661499985,1795.3327369999897,68.49999999999997,2.448,,,,,1775.8636915999814,1780.8632715999847,1780.8632787999813,1780.8797362999758,1792.8636538999854,1792.896506899997,,,,,,,,,,,,,,,,,,,,,,,,,,,,,sub-051,42.9,41.6,43.7,COM3,2024-08-08_11h41.04.769,2024_RDpaindiscrimination_maintask,2023.2.3,59.986886867939994,2024-08-08 11h41.26.252727 -0400,
1,0,1,0,,,,,3,0,3,0,1,0,1,0,,,,,1795.3464523000002,,,,,,,,,,,,,3,active,42.9,1812.3305980000005,1817.382079699979,62.49999999999996,5.032,,,,,1795.3334677999956,1800.3301647999906,1800.3301721999887,1800.3466071999865,1812.330589899997,1812.3634661999822,,,,,,,,,,,,,,,,,,,,,,,,,,,,,sub-051,42.9,41.6,43.7,COM3,2024-08-08_11h41.04.769,2024_RDpaindiscrimination_maintask,2023.2.3,59.986886867939994,2024-08-08 11h41.26.252727 -0400,
1,0,1,0,,,,,3,0,3,0,,,,,0,0,0,0,1818.8800879999762,,,,,,,,,,,,,0,inactive,,,,,,,,,,,,,,,,1817.382579099998,1818.8636910999776,1818.8640079000033,1823.8636309999856,1823.8636380999815,1823.880148199998,1831.8637088999967,1831.8637088999967,1834.830332099984,1834.8636517999985,1834.8636517999985,1834.8471135,4.08,4.72,408,472,8,1.2,0.75,pic-absent,0,m,0.7452676999964751,None,,,,,sub-051,42.9,41.6,43.7,COM3,2024-08-08_11h41.04.769,2024_RDpaindiscrimination_maintask,2023.2.3,59.986886867939994,2024-08-08 11h41.26.252727 -0400,
1,0,1,0,,,,,3,0,3,0,,,,,1,0,1,0,1834.8636517999985,,,,,,,,,,,,,1,active,,,,,,,,,,,,,,,,,,1834.8476838999777,1839.8471927999926,1839.8471998999885,1839.863680999988,1847.8471471999947,1847.8471471999947,1850.813841700001,1850.8471846999892,1850.8471846999892,1850.8307109999878,3.58,5.22,358,522,8,1.2,0.75,pic-present,1,n,0.8054540000157431,None,,,,,sub-051,42.9,41.6,43.7,COM3,2024-08-08_11h41.04.769,2024_RDpaindiscrimination_maintask,2023.2.3,59.986886867939994,2024-08-08 11h41.26.252727 -0400,
1,0,1,0,,,,,3,0,3,0,,,,,2,0,2,0,1850.8471846999892,,,,,,,,,,,,,2,inactive,,,,,,,,,,,,,,,,,,1850.8312103999779,1855.8308711999853,1855.830881699978,1855.847213000001,1863.8307636999816,1863.8307636999816,1866.7973753999977,1866.8307077999925,1866.8307077999925,1866.8142383999948,4.09,4.71,409,471,8,1.2,0.75,pic-absent,0,m,1.0939917999785393,None,,,,,sub-051,42.9,41.6,43.7,COM3,2024-08-08_11h41.04.769,2024_RDpaindiscrimination_maintask,2023.2.3,59.986886867939994,2024-08-08 11h41.26.252727 -0400,
1,0,1,0,,,,,3,0,3,0,,,,,3,0,3,0,1866.8307077999925,,,,,,,,,,,,,3,active,,,,,,,,,,,,,,,,,,1866.8147297999822,1871.8143289999862,1871.8143400999834,1871.830773900001,1879.8143018999835,1879.8143018999835,1882.780878199992,1882.8142292999837,1882.8142292999837,1882.7976963999972,4.53,4.27,453,426,8,1.2,0.75,pic-present,0,m,1.1079392000101507,None,,,,,sub-051,42.9,41.6,43.7,COM3,2024-08-08_11h41.04.769,2024_RDpaindiscrimination_maintask,2023.2.3,59.986886867939994,2024-08-08 11h41.26.252727 -0400,
,,,,,,,,,,,,,,,,,,,,,,,,,,,,,,,,,,,,,,,,,,,,,,,,,,,,,,,,,,,,,,,,,,,,,,,,,,1882.7982386999938,1884.647899899981,1884.6479204999923,1894.6478925999836,,,,,,,,,,,
