series.thisRepN,series.thisTrialN,series.thisN,series.thisIndex,Ramp.thisRepN,Ramp.thisTrialN,Ramp.thisN,Ramp.thisIndex,trials.thisRepN,trials.thisTrialN,trials.thisN,trials.thisIndex,thisRow.t,notes,Welcome.started,Welcome.stopped,instructions2.started,instructions2.stopped,instructions_start_ramp.started,instructions_start_ramp.stopped,confirm_continue.started,key_resp_8.started,confirm_continue.stopped,intensity,wait1_dur,wait.started,wait.stopped,therm_trig.started,therm_trig.stopped,rating_scale.started,rating_scale.stopped,rating,ratingScale.response,ratingScale.rt,press_when_ready.started,text_2.started,key_resp_3.started,press_when_ready.stopped,key_resp_3.keys,key_resp_3.rt,key_resp_3.duration,bloc_terminé.started,bloc_terminé.stopped,compile_ramps.started,compile_ramps.stopped,deuxieme_start.started,deuxieme_start.stopped,press_when_ready2.started,text_9.started,press_when_ready2.stopped,wait_2.started,wait_2.stopped,therm_trig2.started,therm_trig2.stopped,rating_scale2.started,rating_scale2.stopped,keyResp_2.keys,therm_value,ratingScale_2.response,ratingScale_2.rt,thank_you_output_code.started,thank_you_output_code.stopped,participant,com_thermode,nramps,date,expName,psychopyVersion,frameRate,expStart,
0,0,0,0,0,0,0,0,,,,,31.927316599991173,,0.010318799875676632,18.210793599952012,18.210801899898797,26.927471699891612,26.937600399833173,31.894215099979192,31.894533099839464,31.927316599991173,34.16093429992907,41,2.2,34.16111949994229,36.36084400000982,36.36085269995965,48.361254799878225,48.36126159993,53.31952469982207,8.00000000000006,8.00000000000006,4.936,53.320028099929914,53.32750909985043,53.32750909985043,55.761120799928904,y,2.4299939000047743,None,,,,,,,,,,,,,,,,,,,,,,sub-040,COM3,3,2024-06-07_12h52.53.566,2024_RDpaindiscrimination_calibration,2023.2.3,59.99538030657138,2024-06-07 13h09.32.246507 -0400,
0,0,0,0,1,0,1,0,,,,,55.77752959984355,,,,,,,,55.76138069992885,55.77752959984355,56.94459099997766,42,2.4,56.9447093999479,59.34439449990168,59.34440299984999,71.34471159987152,71.34471859992482,75.04958859994076,7.500000000000096,7.500000000000096,3.687,75.05010519991629,75.06107449997216,75.06107449997216,75.64464899990708,y,0.5727784000337124,None,,,,,,,,,,,,,,,,,,,,,,sub-040,COM3,3,2024-06-07_12h52.53.566,2024_RDpaindiscrimination_calibration,2023.2.3,59.99538030657138,2024-06-07 13h09.32.246507 -0400,
0,0,0,0,2,0,2,0,,,,,75.66099909995683,,,,,,,,75.64486050000414,75.66099909995683,76.76131549989805,43,2.1,76.76143289986067,78.86119189998135,78.86120059993118,90.86152149992995,90.86152829998173,93.61497600004077,12.000000000000028,12.000000000000028,2.735,93.61541510000825,93.62784900004044,93.62784900004044,94.49484890000895,y,0.8576186001300812,None,,,,,,,,,,,,,,,,,,,,,,sub-040,COM3,3,2024-06-07_12h52.53.566,2024_RDpaindiscrimination_calibration,2023.2.3,59.99538030657138,2024-06-07 13h09.32.246507 -0400,
0,0,0,0,3,0,3,0,,,,,94.51118669984862,,,,,,,,94.49505849997513,94.51118669984862,95.61147729982622,44,2.4,95.61159799993038,98.0113784999121,98.01139119989239,110.01172679988667,110.0117357999552,113.53279399988241,11.50000000000017,11.50000000000017,3.503,113.5332259000279,113.54463299992494,113.54463299992494,114.09487429982983,y,0.5445814998820424,None,,,,,,,,,,,,,,,,,,,,,,sub-040,COM3,3,2024-06-07_12h52.53.566,2024_RDpaindiscrimination_calibration,2023.2.3,59.99538030657138,2024-06-07 13h09.32.246507 -0400,
0,0,0,0,4,0,4,0,,,,,114.1113301999867,,,,,,,,114.09509319998324,114.1113301999867,115.41162779997103,45,2.1,115.41174839995801,117.51148650003597,117.51149509986863,129.51190149993636,129.51190849998966,136.04892969992943,19.500000000000078,19.500000000000078,6.518,136.0494297000114,136.06156719988212,136.06156719988212,136.76183089986444,y,0.6886613999959081,None,,,,,,,,,,,,,,,,,,,,,,sub-040,COM3,3,2024-06-07_12h52.53.566,2024_RDpaindiscrimination_calibration,2023.2.3,59.99538030657138,2024-06-07 13h09.32.246507 -0400,
0,0,0,0,5,0,5,0,,,,,136.77824399992824,,,,,,,,136.76207259995863,136.77824399992824,137.17864489997737,46,2.3,137.17876289994456,139.4784531998448,139.47846199991181,151.47880709986202,151.4788138999138,153.04780259984545,21.50000000000003,21.50000000000003,1.55,153.04793219990097,153.06173660000786,153.06173660000786,153.5953467998188,y,0.5277340998873115,None,,,,,,,,,,,,,,,,,,,,,,sub-040,COM3,3,2024-06-07_12h52.53.566,2024_RDpaindiscrimination_calibration,2023.2.3,59.99538030657138,2024-06-07 13h09.32.246507 -0400,
0,0,0,0,6,0,6,0,,,,,153.6117491000332,,,,,,,,153.5955775999464,153.6117491000332,155.44535569986328,47,2.2,155.44547189981677,157.64527680003084,157.6452856999822,169.64564989996143,169.64565690001473,173.19982889993116,39.50000000000014,39.50000000000014,3.536,173.20026639988646,173.21190420002677,173.21190420002677,173.8455165999476,y,0.6254668000619859,None,,,,,,,,,,,,,,,,,,,,,,sub-040,COM3,3,2024-06-07_12h52.53.566,2024_RDpaindiscrimination_calibration,2023.2.3,59.99538030657138,2024-06-07 13h09.32.246507 -0400,
0,0,0,0,7,0,7,0,,,,,173.8619148998987,,,,,,,,173.84572399989702,173.8619148998987,174.32885619997978,48,2.1,174.32897339994088,176.42876699985936,176.4287774998229,188.4291280999314,188.42913539987057,191.05086819990538,49.50000000000011,49.50000000000011,2.603,191.05127889988944,191.06210660003126,191.06210660003126,191.77901739999652,y,0.7076675000134856,None,,,,,,,,,,,,,,,,,,,,,,sub-040,COM3,3,2024-06-07_12h52.53.566,2024_RDpaindiscrimination_calibration,2023.2.3,59.99538030657138,2024-06-07 13h09.32.246507 -0400,
0,0,0,0,8,0,8,0,,,,,191.79543089983054,,,,,,,,191.779241199838,191.79543089983054,192.9457033998333,49,2.0,192.94582439982332,194.9456183000002,194.9456272998359,206.94597639981657,206.94598379987292,210.24970389995724,68.99999999999997,68.99999999999997,3.286,210.250146899838,210.2622607999947,210.2622607999947,212.212587099988,y,1.9433387001045048,None,,,,,,,,,,,,,,,,,,,,,,sub-040,COM3,3,2024-06-07_12h52.53.566,2024_RDpaindiscrimination_calibration,2023.2.3,59.99538030657138,2024-06-07 13h09.32.246507 -0400,
0,0,0,0,9,0,9,0,,,,,212.2289481998887,,,,,,,,212.2127937998157,212.2289481998887,212.26260969997384,50,2.0,212.26273249997757,214.26242509996518,214.26243470003828,226.26272329990752,226.2627305998467,229.25129629997537,70.99999999999986,70.99999999999986,2.97,229.25176699995063,229.2624107999727,229.2624107999727,231.99620019993745,n,2.726752799935639,None,,,,,,,,,,,,,,,,,,,,,,sub-040,COM3,3,2024-06-07_12h52.53.566,2024_RDpaindiscrimination_calibration,2023.2.3,59.99538030657138,2024-06-07 13h09.32.246507 -0400,
0,0,0,0,,,,,,,,,,,,,,,,,,,,,,,,,,,,,,,,,,,,,,231.99637039983645,235.99596069986,,,,,,,,,,,,,,,,,,,,sub-040,COM3,3,2024-06-07_12h52.53.566,2024_RDpaindiscrimination_calibration,2023.2.3,59.99538030657138,2024-06-07 13h09.32.246507 -0400,
1,0,1,0,0,0,0,0,,,,,237.76249059988186,,,,,,235.9960848998744,237.7460786998272,237.74640269996598,237.76249059988186,243.21282089990564,41,2.3,243.21299709985033,245.51272449991666,245.51273329998367,257.5130743999034,257.51308129983954,259.68398219998926,14.000000000000101,14.000000000000101,2.152,259.6845481998753,259.696023899829,259.696023899829,260.1296363999136,y,0.41709810006432235,None,,,,,,,,,,,,,,,,,,,,,,sub-040,COM3,3,2024-06-07_12h52.53.566,2024_RDpaindiscrimination_calibration,2023.2.3,59.99538030657138,2024-06-07 13h09.32.246507 -0400,
1,0,1,0,1,0,1,0,,,,,260.1459749999922,,,,,,,,260.12992629990913,260.1459749999922,260.1963423998095,42,2.0,260.1964630000293,262.1962225998286,262.1962317000143,274.19652889994904,274.19653610000387,278.1845949999988,12.500000000000073,12.500000000000073,3.969,278.1850802998524,278.196207099827,278.196207099827,278.69652480003424,y,0.49752609990537167,None,,,,,,,,,,,,,,,,,,,,,,sub-040,COM3,3,2024-06-07_12h52.53.566,2024_RDpaindiscrimination_calibration,2023.2.3,59.99538030657138,2024-06-07 13h09.32.246507 -0400,
1,0,1,0,2,0,2,0,,,,,278.7128892999608,,,,,,,,278.69676459999755,278.7128892999608,278.7632547998801,43,2.2,278.76336540002376,280.96306360000744,280.9630721998401,292.96340659982525,292.9634137998801,294.40126860002056,10.0,10.0,1.419,294.4016614998691,294.41302849981,294.41302849981,295.16346179996617,y,0.7444331999868155,None,,,,,,,,,,,,,,,,,,,,,,sub-040,COM3,3,2024-06-07_12h52.53.566,2024_RDpaindiscrimination_calibration,2023.2.3,59.99538030657138,2024-06-07 13h09.32.246507 -0400,
1,0,1,0,3,0,3,0,,,,,295.17970749991946,,,,,,,,295.16368049988523,295.17970749991946,295.2133528999984,44,2.5,295.2134622000158,297.7132299998775,297.71324309986085,309.7135277998168,309.7135352999903,315.1846878998913,30.000000000000178,30.000000000000178,5.405,315.1851137999911,315.1965718998108,315.1965718998108,316.01349969999865,y,0.8044572998769581,None,,,,,,,,,,,,,,,,,,,,,,sub-040,COM3,3,2024-06-07_12h52.53.566,2024_RDpaindiscrimination_calibration,2023.2.3,59.99538030657138,2024-06-07 13h09.32.246507 -0400,
1,0,1,0,4,0,4,0,,,,,316.0297880999278,,,,,,,,316.0137271999847,316.0297880999278,316.04679819988087,45,2.4,316.04691799986176,318.4467749998439,318.44678419991396,330.44710660004057,330.4471133998595,333.78508890001103,36.50000000000012,36.50000000000012,3.32,333.7855763998814,333.79674489982426,333.79674489982426,334.31368529982865,y,0.51313819992356,None,,,,,,,,,,,,,,,,,,,,,,sub-040,COM3,3,2024-06-07_12h52.53.566,2024_RDpaindiscrimination_calibration,2023.2.3,59.99538030657138,2024-06-07 13h09.32.246507 -0400,
1,0,1,0,5,0,5,0,,,,,334.3300733999349,,,,,,,,334.3139122999273,334.3300733999349,334.4138817000203,46,2.0,334.413997199852,336.41361269983463,336.41362120001577,348.41401299997233,348.41401940002106,350.81897159991786,38.99999999999993,38.99999999999993,2.387,350.81944589992054,350.83027199981734,350.83027199981734,351.16389489988796,y,0.3187985001131892,None,,,,,,,,,,,,,,,,,,,,,,sub-040,COM3,3,2024-06-07_12h52.53.566,2024_RDpaindiscrimination_calibration,2023.2.3,59.99538030657138,2024-06-07 13h09.32.246507 -0400,
1,0,1,0,6,0,6,0,,,,,351.18025029986165,,,,,,,,351.16410559997894,351.18025029986165,351.2306422998663,47,2.4,351.23075250000693,353.6304574999958,353.63046589982696,365.630844600033,365.630851799855,368.035620899871,43.0000000000001,43.0000000000001,2.387,368.036110999994,368.04711229982786,368.04711229982786,368.5142228999175,y,0.46664640004746616,None,,,,,,,,,,,,,,,,,,,,,,sub-040,COM3,3,2024-06-07_12h52.53.566,2024_RDpaindiscrimination_calibration,2023.2.3,59.99538030657138,2024-06-07 13h09.32.246507 -0400,
1,0,1,0,7,0,7,0,,,,,368.5304175999481,,,,,,,,368.5144211000297,368.5304175999481,368.597415599972,48,2.5,368.59752289997414,371.09737590001896,371.0973842998501,383.097647999879,383.0976556998212,384.68262179987505,56.50000000000005,56.50000000000005,1.567,384.682769499952,384.6971811999101,384.6971811999101,385.1141590999905,y,0.41595389996655285,None,,,,,,,,,,,,,,,,,,,,,,sub-040,COM3,3,2024-06-07_12h52.53.566,2024_RDpaindiscrimination_calibration,2023.2.3,59.99538030657138,2024-06-07 13h09.32.246507 -0400,
1,0,1,0,8,0,8,0,,,,,385.1305058998987,,,,,,,,385.1143636999186,385.1305058998987,385.1475497998763,49,2.3,385.1476535999682,387.44735709996894,387.44736610003747,399.447503299918,399.4475087998435,400.10075179999694,50.0,50.0,0.635,400.1009929999709,400.1140774998348,400.1140774998348,403.31429719994776,n,3.187582999933511,None,,,,,,,,,,,,,,,,,,,,,,sub-040,COM3,3,2024-06-07_12h52.53.566,2024_RDpaindiscrimination_calibration,2023.2.3,59.99538030657138,2024-06-07 13h09.32.246507 -0400,
1,0,1,0,,,,,,,,,,,,,,,,,,,,,,,,,,,,,,,,,,,,,,403.31446299981326,407.3142088998575,,,,,,,,,,,,,,,,,,,,sub-040,COM3,3,2024-06-07_12h52.53.566,2024_RDpaindiscrimination_calibration,2023.2.3,59.99538030657138,2024-06-07 13h09.32.246507 -0400,
2,0,2,0,0,0,0,0,,,,,416.66415530000813,,,,,,407.314328199951,416.6478555998765,416.64820189983584,416.66415530000813,419.2812814998906,41,2.3,419.281453399919,421.58116830000654,421.5811765999533,433.58136769989505,433.58137439982966,437.06903479993343,15.499999999999996,15.499999999999996,3.47,437.06958839995787,437.08110019983724,437.08110019983724,437.5982392998412,y,0.504178199917078,None,,,,,,,,,,,,,,,,,,,,,,sub-040,COM3,3,2024-06-07_12h52.53.566,2024_RDpaindiscrimination_calibration,2023.2.3,59.99538030657138,2024-06-07 13h09.32.246507 -0400,
2,0,2,0,1,0,1,0,,,,,437.61441949987784,,,,,,,,437.5985228000209,437.61441949987784,437.63142019999214,42,2.5,437.6315371999517,440.13129619997926,440.13130469992757,452.1316474999767,452.1316543999128,454.00151929981075,14.500000000000004,14.500000000000004,1.852,454.0019382999744,454.0145988999866,454.0145988999866,454.6315971999429,y,0.606609599897638,None,,,,,,,,,,,,,,,,,,,,,,sub-040,COM3,3,2024-06-07_12h52.53.566,2024_RDpaindiscrimination_calibration,2023.2.3,59.99538030657138,2024-06-07 13h09.32.246507 -0400,
2,0,2,0,2,0,2,0,,,,,454.6479391998146,,,,,,,,454.63179399981163,454.6479391998146,455.58158679981716,43,2.5,455.5817105998285,458.0814663998317,458.08147510001436,470.0818247999996,470.08183189993724,472.1377727999352,27.99999999999997,27.99999999999997,2.038,472.1381196998991,472.14812679984607,472.14812679984607,472.71505709993653,y,0.5527921000029892,None,,,,,,,,,,,,,,,,,,,,,,sub-040,COM3,3,2024-06-07_12h52.53.566,2024_RDpaindiscrimination_calibration,2023.2.3,59.99538030657138,2024-06-07 13h09.32.246507 -0400,
2,0,2,0,3,0,3,0,,,,,472.7314899000339,,,,,,,,472.71526709990576,472.7314899000339,472.781723999884,44,2.5,472.78182759997435,475.2816454998683,475.2816540999338,487.28203050000593,487.2820372998249,490.28579619992524,34.00000000000009,34.00000000000009,2.986,490.2862839999143,490.29831589991227,490.29831589991227,490.9153112999629,y,0.6067836999427527,None,,,,,,,,,,,,,,,,,,,,,,sub-040,COM3,3,2024-06-07_12h52.53.566,2024_RDpaindiscrimination_calibration,2023.2.3,59.99538030657138,2024-06-07 13h09.32.246507 -0400,
2,0,2,0,4,0,4,0,,,,,490.9316510998178,,,,,,,,490.91554589988664,490.9316510998178,490.96529740002006,45,2.5,490.9654174998868,493.4707170999609,493.47072630003095,505.46555279986933,505.46556029981,508.36868639988825,42.500000000000064,42.500000000000064,2.88,508.36911390000023,508.3818626999855,508.3818626999855,508.765451699961,y,0.3714670999906957,None,,,,,,,,,,,,,,,,,,,,,,sub-040,COM3,3,2024-06-07_12h52.53.566,2024_RDpaindiscrimination_calibration,2023.2.3,59.99538030657138,2024-06-07 13h09.32.246507 -0400,
2,0,2,0,5,0,5,0,,,,,508.78187029995024,,,,,,,,508.76568149984814,508.78187029995024,508.8321602998767,46,2.5,508.8322846998926,511.3320505998563,511.33205899992026,523.3324440999422,523.3324513998814,526.1042637999635,40.499999999999964,40.499999999999964,2.754,526.1047382999677,526.1153497998603,526.1153497998603,526.6823046999052,y,0.5539784000720829,None,,,,,,,,,,,,,,,,,,,,,,sub-040,COM3,3,2024-06-07_12h52.53.566,2024_RDpaindiscrimination_calibration,2023.2.3,59.99538030657138,2024-06-07 13h09.32.246507 -0400,
2,0,2,0,6,0,6,0,,,,,526.698713199934,,,,,,,,526.6825154998805,526.698713199934,526.748983599944,47,2.1,526.749102700036,528.8488928999286,528.8489015998784,540.8491779998876,540.8491851999424,544.3026101998985,42.0,42.0,3.435,544.3030479999725,544.3154584998265,544.3154584998265,544.9823888000101,y,0.6578506999649107,None,,,,,,,,,,,,,,,,,,,,,,sub-040,COM3,3,2024-06-07_12h52.53.566,2024_RDpaindiscrimination_calibration,2023.2.3,59.99538030657138,2024-06-07 13h09.32.246507 -0400,
2,0,2,0,7,0,7,0,,,,,544.9987925000023,,,,,,,,544.9826283999719,544.9987925000023,545.0657517998479,48,2.4,545.0658737998456,547.4656528998166,547.4656615999993,559.4660410999786,559.4660481000319,561.9198808998335,55.000000000000085,55.000000000000085,2.436,561.9204198999796,561.9323863999452,561.9323863999452,562.2993226998951,y,0.3564287000335753,None,,,,,,,,,,,,,,,,,,,,,,sub-040,COM3,3,2024-06-07_12h52.53.566,2024_RDpaindiscrimination_calibration,2023.2.3,59.99538030657138,2024-06-07 13h09.32.246507 -0400,
2,0,2,0,8,0,8,0,,,,,562.3156721999403,,,,,,,,562.2995324998628,562.3156721999403,562.3659330999944,49,2.5,562.3660420000087,564.8658687998541,564.8658775999211,576.8663285998628,576.866335599916,581.5865527000278,71.99999999999983,71.99999999999983,4.702,581.5870234998874,581.5992099000141,581.5992099000141,582.0329232998192,n,0.4214609998743981,None,,,,,,,,,,,,,,,,,,,,,,sub-040,COM3,3,2024-06-07_12h52.53.566,2024_RDpaindiscrimination_calibration,2023.2.3,59.99538030657138,2024-06-07 13h09.32.246507 -0400,
2,0,2,0,,,,,,,,,,,,,,,,,,,,,,,,,,,,,,,,,,,,,,582.0331065999344,586.032736599911,,,,,,,,,,,,,,,,,,,,sub-040,COM3,3,2024-06-07_12h52.53.566,2024_RDpaindiscrimination_calibration,2023.2.3,59.99538030657138,2024-06-07 13h09.32.246507 -0400,
,,,,,,,,0,0,0,0,607.4161374999676,,,,,,,,,,,,2.5,,,,,,,9.500000000000133,,,,,,,,,,,,586.0327632999979,591.032851099968,591.0328589999117,607.3997427998111,607.4000671999529,607.4161374999676,608.1997793000191,608.1997880998533,610.6996695999987,610.6996839998756,622.7000328998547,622.7000402000267,625.438365199836,None,42.2,9.500000000000133,2.721,,,sub-040,COM3,3,2024-06-07_12h52.53.566,2024_RDpaindiscrimination_calibration,2023.2.3,59.99538030657138,2024-06-07 13h09.32.246507 -0400,
,,,,,,,,1,0,1,0,625.4497694999445,,,,,,,,,,,,2.4,,,,,,,27.500000000000185,,,,,,,,,,,,,,,,625.4396440000273,625.4497694999445,627.2832660998683,627.2832751998212,629.6832623998635,629.6832714998163,641.6836082998198,641.6836158998776,645.1214568000287,None,44.1,27.500000000000185,3.42,,,sub-040,COM3,3,2024-06-07_12h52.53.566,2024_RDpaindiscrimination_calibration,2023.2.3,59.99538030657138,2024-06-07 13h09.32.246507 -0400,
,,,,,,,,2,0,2,0,645.1331923999824,,,,,,,,,,,,2.1,,,,,,,28.49999999999997,,,,,,,,,,,,,,,,645.1224422999658,645.1331923999824,645.783480099868,645.783488899935,647.8833828000352,647.88339299988,659.8837869998533,659.8837941999082,662.6045847998466,None,46.5,28.49999999999997,2.703,,,sub-040,COM3,3,2024-06-07_12h52.53.566,2024_RDpaindiscrimination_calibration,2023.2.3,59.99538030657138,2024-06-07 13h09.32.246507 -0400,
,,,,,,,,3,0,3,0,662.616780599812,,,,,,,,,,,,2.0,,,,,,,69.99999999999983,,,,,,,,,,,,,,,,662.6055248000193,662.616780599812,663.1002772999927,663.1002859999426,665.1003856998868,665.1003944999538,677.1006177999079,677.100624699844,680.0874550999142,None,47.8,69.99999999999983,2.968,,,sub-040,COM3,3,2024-06-07_12h52.53.566,2024_RDpaindiscrimination_calibration,2023.2.3,59.99538030657138,2024-06-07 13h09.32.246507 -0400,
,,,,,,,,4,0,4,0,680.1002296998631,,,,,,,,,,,,2.2,,,,,,,43.5,,,,,,,,,,,,,,,,680.0880550998263,680.1002296998631,680.6338332998566,680.6338420000393,682.8337534999009,682.8337625998538,694.834092099918,694.8340991998557,697.6225607998203,None,45.9,43.5,2.77,,,sub-040,COM3,3,2024-06-07_12h52.53.566,2024_RDpaindiscrimination_calibration,2023.2.3,59.99538030657138,2024-06-07 13h09.32.246507 -0400,
,,,,,,,,5,0,5,0,697.6337515998166,,,,,,,,,,,,2.2,,,,,,,30.000000000000036,,,,,,,,,,,,,,,,697.6234769998118,697.6337515998166,698.1008200999349,698.1008293998893,700.3007328000385,700.3007420999929,712.3010692000389,712.3010763998609,714.7211710000411,None,41.0,30.000000000000036,2.402,,,sub-040,COM3,3,2024-06-07_12h52.53.566,2024_RDpaindiscrimination_calibration,2023.2.3,59.99538030657138,2024-06-07 13h09.32.246507 -0400,
,,,,,,,,6,0,6,0,714.7339639998972,,,,,,,,,,,,2.2,,,,,,,64.49999999999999,,,,,,,,,,,,,,,,714.7221523998305,714.7339639998972,715.600979299983,715.6009882998187,717.8009251998737,717.8009343999438,729.8012047999073,729.801212299848,731.9046145000029,None,47.2,64.49999999999999,2.085,,,sub-040,COM3,3,2024-06-07_12h52.53.566,2024_RDpaindiscrimination_calibration,2023.2.3,59.99538030657138,2024-06-07 13h09.32.246507 -0400,
,,,,,,,,7,0,7,0,731.9174043999519,,,,,,,,,,,,2.0,,,,,,,74.49999999999982,,,,,,,,,,,,,,,,731.9056178999599,731.9174043999519,732.73445670004,732.7344654998742,734.7343357999343,734.7343454998918,746.7346961998846,746.7347036998253,749.9732015000191,None,49.0,74.49999999999982,3.22,,,sub-040,COM3,3,2024-06-07_12h52.53.566,2024_RDpaindiscrimination_calibration,2023.2.3,59.99538030657138,2024-06-07 13h09.32.246507 -0400,
,,,,,,,,8,0,8,0,749.9843882999849,,,,,,,,,,,,2.0,,,,,,,3.500000000000058,,,,,,,,,,,,,,,,749.9741762999911,749.9843882999849,750.4513046999928,750.4513133999426,752.4511968998704,752.451206299942,764.4515594998375,764.451567400014,767.6696181998122,None,41.6,3.500000000000058,3.2,,,sub-040,COM3,3,2024-06-07_12h52.53.566,2024_RDpaindiscrimination_calibration,2023.2.3,59.99538030657138,2024-06-07 13h09.32.246507 -0400,
,,,,,,,,9,0,9,0,767.6845227999147,,,,,,,,,,,,2.1,,,,,,,20.000000000000178,,,,,,,,,,,,,,,,767.6698980999645,767.6845227999147,768.2515547999647,768.2515632000286,770.3513776999898,770.3513872998301,782.3517579999752,782.3517652000301,786.2035604999401,None,45.3,20.000000000000178,3.769,,,sub-040,COM3,3,2024-06-07_12h52.53.566,2024_RDpaindiscrimination_calibration,2023.2.3,59.99538030657138,2024-06-07 13h09.32.246507 -0400,
,,,,,,,,10,0,10,0,786.2180831998121,,,,,,,,,,,,2.0,,,,,,,72.99999999999996,,,,,,,,,,,,,,,,786.2038826998323,786.2180831998121,786.6889154999517,786.6889249000233,788.684945399873,788.6849544998258,800.6853177000303,800.6853253999725,803.5895358000416,None,48.4,72.99999999999996,2.886,,,sub-040,COM3,3,2024-06-07_12h52.53.566,2024_RDpaindiscrimination_calibration,2023.2.3,59.99538030657138,2024-06-07 13h09.32.246507 -0400,
,,,,,,,,11,0,11,0,803.6015973999165,,,,,,,,,,,,2.5,,,,,,,36.00000000000012,,,,,,,,,,,,,,,,803.5903392999899,803.6015973999165,804.1852567999158,804.1852655999828,806.685180200031,806.6851891998667,818.6855223998427,818.6855301000178,821.4574662998784,None,42.8,36.00000000000012,2.754,,,sub-040,COM3,3,2024-06-07_12h52.53.566,2024_RDpaindiscrimination_calibration,2023.2.3,59.99538030657138,2024-06-07 13h09.32.246507 -0400,
,,,,,,,,12,0,12,0,821.4684133999981,,,,,,,,,,,,2.4,,,,,,,23.000000000000203,,,,,,,,,,,,,,,,821.4584424998611,821.4684133999981,822.1019770998973,822.1019882999826,824.5019729998894,824.5019825999625,836.5023711000104,836.502378599951,839.6901550998446,None,44.7,23.000000000000203,3.17,,,sub-040,COM3,3,2024-06-07_12h52.53.566,2024_RDpaindiscrimination_calibration,2023.2.3,59.99538030657138,2024-06-07 13h09.32.246507 -0400,
,,,,,,,,13,0,13,0,839.7019740999676,,,,,,,,,,,,2.0,,,,,,,50.00000000000011,,,,,,,,,,,,,,,,839.6911809998564,839.7019740999676,840.135719700018,840.1357280998491,842.1355745999608,842.1355830000248,854.1358783999458,854.1358858000021,856.5070900998544,None,43.5,50.00000000000011,2.354,,,sub-040,COM3,3,2024-06-07_12h52.53.566,2024_RDpaindiscrimination_calibration,2023.2.3,59.99538030657138,2024-06-07 13h09.32.246507 -0400,
,,,,,,,,,,,,,,,,,,,,,,,,,,,,,,,,,,,,,,,,,,,,,,,,,,,,,,,,,,,,856.5078272998799,861.5191257998813,,,,,,,,,
