trials.thisRepN,trials.thisTrialN,trials.thisN,trials.thisIndex,loop_test.thisRepN,loop_test.thisTrialN,loop_test.thisN,loop_test.thisIndex,loop_eval_discri.thisRepN,loop_eval_discri.thisTrialN,loop_eval_discri.thisN,loop_eval_discri.thisIndex,loop_eval.thisRepN,loop_eval.thisTrialN,loop_eval.thisN,loop_eval.thisIndex,loop_discri.thisRepN,loop_discri.thisTrialN,loop_discri.thisN,loop_discri.thisIndex,thisRow.t,notes,Set_up.started,Set_up.stopped,electrode_check.started,electrode_check.stopped,instructions_eval.started,instructions_eval.stopped,pause_5_test.started,pause_5_test.stopped,Phase_Test.started,thermode_locali.started,Phase_Test.stopped,loca_thermode,condition,temp_trial_sent,eval_douleur.started,eval_douleur.stopped,ratingScale.response,ratingScale.rt,thermode_locali.stopped,Fin_test.started,text.started,Fin_test.stopped,pause_5_EVA.started,pause_5_EVA.stopped,tâche_EVA.started,thermode_locali_EVA.started,thermode_locali_EVA.stopped,tâche_EVA.stopped,instructions_discrim.started,instructions_discrim.stopped,pause_5_pic.started,pause_5_pic.stopped,tâche_PIC.started,thermode_locali_pic.started,percu_or.started,responser.started,thermode_locali_pic.stopped,percu_or.stopped,responser.stopped,tâche_PIC.stopped,dur_plateau1,dur_plateau2,dur_plateau1_sent,dur_plateau2_sent,start_plateau_2_resp,dur_pic,dur_rise,pic_presence,pic_response,discrimin_resp.keys,discrimin_resp.rt,discrimin_resp.duration,break_entre_bloc.started,break_entre_bloc.stopped,merci.started,merci.stopped,participant,temp_flat,temp_active,temp_pic_set,com_thermode,date,expName,psychopyVersion,frameRate,expStart,
0,0,0,0,0,0,0,0,,,,,,,,,,,,,101.74694069998804,,0.012649299926124513,88.99734469992109,88.99772049998865,90.44707320001908,90.44708079996053,101.71385499997996,101.71414169995114,106.73035939992405,106.73036509996746,106.74704209994525,118.71390129998326,0,active,48.2,118.71414739999454,123.25038129999302,3.0000000000001292,4.512,,,,,,,,,,,,,,,,,,,,,,,,,,,,,,,,,,,,,,,sub-023,48.8,48.2,49.6,COM3,2024-02-15_11h16.33.508,2024_RDpaindiscrimination_maintask,2023.2.3,60.002364097176404,2024-02-15 11h16.52.114596 -0500,
0,0,0,0,1,0,1,0,,,,,,,,,,,,,123.26391229999717,,,,,,,,123.25125630002003,128.24749290000182,128.24749969993718,128.26396529993508,140.24788689997513,1,active,48.2,140.24802790000103,144.56659439997748,17.500000000000103,4.299,140.28080880001653,,,,,,,,,,,,,,,,,,,,,,,,,,,,,,,,,,,,,,sub-023,48.8,48.2,49.6,COM3,2024-02-15_11h16.33.508,2024_RDpaindiscrimination_maintask,2023.2.3,60.002364097176404,2024-02-15 11h16.52.114596 -0500,
0,0,0,0,2,0,2,0,,,,,,,,,,,,,144.58078610000666,,,,,,,,144.56745790003333,149.56434849998914,149.56435499992222,149.58085459994618,161.56473420001566,2,inactive,48.8,161.56487939995714,166.18394239991903,38.500000000000114,4.6,161.59762279991992,,,,,,,,,,,,,,,,,,,,,,,,,,,,,,,,,,,,,,sub-023,48.8,48.2,49.6,COM3,2024-02-15_11h16.33.508,2024_RDpaindiscrimination_maintask,2023.2.3,60.002364097176404,2024-02-15 11h16.52.114596 -0500,
0,0,0,0,3,0,3,0,,,,,,,,,,,,,166.19770989997778,,,,,,,,166.18478190002497,171.18122139992192,171.18122779997066,171.1977687999606,183.18167640001047,3,active,48.2,183.181817799923,187.95071419992018,62.49999999999993,4.749,183.21450699993875,,,,,,,,,,,,,,,,,,,,,,,,,,,,,,,,,,,,,,sub-023,48.8,48.2,49.6,COM3,2024-02-15_11h16.33.508,2024_RDpaindiscrimination_maintask,2023.2.3,60.002364097176404,2024-02-15 11h16.52.114596 -0500,
0,0,0,0,4,0,4,0,,,,,,,,,,,,,187.9645293999929,,,,,,,,187.95149260002654,192.94810529996175,192.94811210001353,192.96460659999866,204.9485541000031,0,active,48.2,204.94869749993086,208.36748739995528,0.500000000000165,3.399,204.98140419996344,,,,,,,,,,,,,,,,,,,,,,,,,,,,,,,,,,,,,,sub-023,48.8,48.2,49.6,COM3,2024-02-15_11h16.33.508,2024_RDpaindiscrimination_maintask,2023.2.3,60.002364097176404,2024-02-15 11h16.52.114596 -0500,
0,0,0,0,5,0,5,0,,,,,,,,,,,,,208.38139320001937,,,,,,,,208.368337300024,213.36494370002765,213.36495039996225,213.38148719992023,225.36537809995934,1,inactive,48.8,225.36552240001038,228.2171432999894,57.49999999999987,2.832,225.39822600001935,,,,,,,,,,,,,,,,,,,,,,,,,,,,,,,,,,,,,,sub-023,48.8,48.2,49.6,COM3,2024-02-15_11h16.33.508,2024_RDpaindiscrimination_maintask,2023.2.3,60.002364097176404,2024-02-15 11h16.52.114596 -0500,
0,0,0,0,6,0,6,0,,,,,,,,,,,,,228.23163699998986,,,,,,,,228.21790799999144,233.21514149999712,233.2151474999264,233.2316082000034,245.21556069992948,2,active,48.2,245.21570910001174,247.9675936999265,24.500000000000057,2.732,245.24842790002003,,,,,,,,,,,,,,,,,,,,,,,,,,,,,,,,,,,,,,sub-023,48.8,48.2,49.6,COM3,2024-02-15_11h16.33.508,2024_RDpaindiscrimination_maintask,2023.2.3,60.002364097176404,2024-02-15 11h16.52.114596 -0500,
0,0,0,0,7,0,7,0,,,,,,,,,,,,,247.9817863999633,,,,,,,,247.96844409999903,252.96534649992827,252.96535279997624,252.98185480001848,264.96582599997055,3,active,48.2,264.9659725999227,268.1346842999337,58.50000000000004,3.149,264.99862780002877,,,,,,,,,,,,,,,,,,,,,,,,,,,,,,,,,,,,,,sub-023,48.8,48.2,49.6,COM3,2024-02-15_11h16.33.508,2024_RDpaindiscrimination_maintask,2023.2.3,60.002364097176404,2024-02-15 11h16.52.114596 -0500,
0,0,0,0,8,0,8,0,,,,,,,,,,,,,268.1486985000083,,,,,,,,268.1354977999581,273.132130999933,273.13213729998097,273.1486385000171,285.1326654999284,0,inactive,48.8,285.13280999998096,289.1520849999506,32.00000000000017,4.0,285.16549159993883,,,,,,,,,,,,,,,,,,,,,,,,,,,,,,,,,,,,,,sub-023,48.8,48.2,49.6,COM3,2024-02-15_11h16.33.508,2024_RDpaindiscrimination_maintask,2023.2.3,60.002364097176404,2024-02-15 11h16.52.114596 -0500,
0,0,0,0,9,0,9,0,,,,,,,,,,,,,289.1655749999918,,,,,,,,289.1528236999875,294.1490886999527,294.14909510000143,294.1655941000208,306.14950559998397,1,inactive,48.8,306.149645700003,308.6007629999658,39.5,2.431,306.1824266000185,,,,,,,,,,,,,,,,,,,,,,,,,,,,,,,,,,,,,,sub-023,48.8,48.2,49.6,COM3,2024-02-15_11h16.33.508,2024_RDpaindiscrimination_maintask,2023.2.3,60.002364097176404,2024-02-15 11h16.52.114596 -0500,
0,0,0,0,10,0,10,0,,,,,,,,,,,,,308.61576309998054,,,,,,,,308.60157249995973,313.5992895999225,313.5992957999697,313.61572220001835,325.599686200032,2,active,48.2,325.5998276999453,328.25257569993846,26.500000000000085,2.634,325.6326149000088,,,,,,,,,,,,,,,,,,,,,,,,,,,,,,,,,,,,,,sub-023,48.8,48.2,49.6,COM3,2024-02-15_11h16.33.508,2024_RDpaindiscrimination_maintask,2023.2.3,60.002364097176404,2024-02-15 11h16.52.114596 -0500,
0,0,0,0,11,0,11,0,,,,,,,,,,,,,328.2659359999234,,,,,,,,328.25338090001605,333.2494649,333.24947129993234,333.26590999995824,345.2498526999261,3,inactive,48.8,345.249995799968,349.11915699997917,48.49999999999991,3.85,345.28279269998893,,,,,,,,,,,,,,,,,,,,,,,,,,,,,,,,,,,,,,sub-023,48.8,48.2,49.6,COM3,2024-02-15_11h16.33.508,2024_RDpaindiscrimination_maintask,2023.2.3,60.002364097176404,2024-02-15 11h16.52.114596 -0500,
0,0,0,0,12,0,12,0,,,,,,,,,,,,,349.1327744999435,,,,,,,,349.1199272000231,354.11636570002884,354.11637179995887,354.13278500002343,366.1167212999426,0,inactive,48.8,366.116860399954,368.38558879995253,38.499999999999936,2.249,366.14957090001553,,,,,,,,,,,,,,,,,,,,,,,,,,,,,,,,,,,,,,sub-023,48.8,48.2,49.6,COM3,2024-02-15_11h16.33.508,2024_RDpaindiscrimination_maintask,2023.2.3,60.002364097176404,2024-02-15 11h16.52.114596 -0500,
0,0,0,0,13,0,13,0,,,,,,,,,,,,,368.39970329997595,,,,,,,,368.38639649993274,373.3833901999751,373.3833962000208,373.3997682000045,385.3836170999566,1,active,48.2,385.3837565999711,390.2695250000106,36.99999999999994,4.866,385.4164716999512,,,,,,,,,,,,,,,,,,,,,,,,,,,,,,,,,,,,,,sub-023,48.8,48.2,49.6,COM3,2024-02-15_11h16.33.508,2024_RDpaindiscrimination_maintask,2023.2.3,60.002364097176404,2024-02-15 11h16.52.114596 -0500,
0,0,0,0,14,0,14,0,,,,,,,,,,,,,390.2832356999861,,,,,,,,390.2703026999952,395.26677669992205,395.266782599967,395.28321769996546,407.2672148999991,2,inactive,48.8,407.2673556000227,412.26982919999864,61.99999999999985,4.983,407.3000138999196,,,,,,,,,,,,,,,,,,,,,,,,,,,,,,,,,,,,,,sub-023,48.8,48.2,49.6,COM3,2024-02-15_11h16.33.508,2024_RDpaindiscrimination_maintask,2023.2.3,60.002364097176404,2024-02-15 11h16.52.114596 -0500,
0,0,0,0,15,0,15,0,,,,,,,,,,,,,412.28347799996845,,,,,,,,412.2706035999581,417.26701029995456,417.2670167000033,417.28348699992057,429.2673354999861,3,inactive,48.8,429.26747860002797,431.87054869998246,85.50000000000004,2.584,429.3002161999466,,,,,,,,,,,,,,,,,,,,,,,,,,,,,,,,,,,,,,sub-023,48.8,48.2,49.6,COM3,2024-02-15_11h16.33.508,2024_RDpaindiscrimination_maintask,2023.2.3,60.002364097176404,2024-02-15 11h16.52.114596 -0500,
0,0,0,0,,,,,0,0,0,0,0,0,0,0,,,,,464.45060999994166,,,,,,457.53454909997527,464.4342845999636,,,,,,0,inactive,48.8,481.4349220999284,488.56980319996364,60.000000000000036,7.116,,431.87115209992044,431.88368219998665,457.5342257999582,464.43458679993637,469.43423369992524,469.43424039997626,469.45070079993457,481.46752499998547,481.4349132999778,,,,,,,,,,,,,,,,,,,,,,,,,,,,,sub-023,48.8,48.2,49.6,COM3,2024-02-15_11h16.33.508,2024_RDpaindiscrimination_maintask,2023.2.3,60.002364097176404,2024-02-15 11h16.52.114596 -0500,
0,0,0,0,,,,,0,0,0,0,1,0,1,0,,,,,488.58426229993347,,,,,,,,,,,,,1,active,48.8,505.5682625999907,510.8873002999462,64.99999999999991,5.3,,,,,488.57059439993463,493.5678217000095,493.5678286999464,493.58433300000615,505.6011061000172,505.5682539999252,,,,,,,,,,,,,,,,,,,,,,,,,,,,,sub-023,48.8,48.2,49.6,COM3,2024-02-15_11h16.33.508,2024_RDpaindiscrimination_maintask,2023.2.3,60.002364097176404,2024-02-15 11h16.52.114596 -0500,
0,0,0,0,,,,,0,0,0,0,,,,,0,0,0,0,517.817902599927,,,,,,,,,,,,,2,active,,,,,,,,,,,,,,,,510.887864899938,517.801502999966,517.801817300031,522.8014887999743,522.8014960000291,522.8179561999859,530.801367499982,530.801367499982,533.7680658999598,533.8014021000126,533.8014021000126,533.7849085000344,3.58,5.22,358,522,8,1.2,0.75,pic-present,1,n,1.7621979999821633,None,,,,,sub-023,48.8,48.2,49.6,COM3,2024-02-15_11h16.33.508,2024_RDpaindiscrimination_maintask,2023.2.3,60.002364097176404,2024-02-15 11h16.52.114596 -0500,
0,0,0,0,,,,,0,0,0,0,,,,,1,0,1,0,533.8014021000126,,,,,,,,,,,,,3,inactive,,,,,,,,,,,,,,,,,,533.7855391999474,538.7849477999844,538.7849553999258,538.8014288999839,546.784871699987,546.784871699987,549.7515680999495,549.7849261999363,549.7849261999363,549.7684188999701,3.78,5.02,378,501,8,1.2,0.75,pic-absent,0,m,0.9262782000005245,None,,,,,sub-023,48.8,48.2,49.6,COM3,2024-02-15_11h16.33.508,2024_RDpaindiscrimination_maintask,2023.2.3,60.002364097176404,2024-02-15 11h16.52.114596 -0500,
0,0,0,0,,,,,0,0,0,0,,,,,2,0,2,0,549.7849261999363,,,,,,,,,,,,,0,inactive,,,,,,,,,,,,,,,,,,549.76889940002,554.7683836999349,554.7683910999913,554.7849477999844,562.7683855999494,562.7683855999494,565.735008199932,565.768374599982,565.768374599982,565.7518461999716,3.99,4.81,399,480,8,1.2,0.75,pic-present,1,n,0.7907412999775261,None,,,,,sub-023,48.8,48.2,49.6,COM3,2024-02-15_11h16.33.508,2024_RDpaindiscrimination_maintask,2023.2.3,60.002364097176404,2024-02-15 11h16.52.114596 -0500,
0,0,0,0,,,,,0,0,0,0,,,,,3,0,3,0,565.768374599982,,,,,,,,,,,,,1,active,,,,,,,,,,,,,,,,,,565.7523787999526,570.7519092999864,570.7519168999279,570.7684156999458,578.7518836000236,578.7518836000236,581.7185836000135,581.7518411999336,581.7518411999336,581.7353198999772,4.11,4.69,411,469,8,1.2,0.75,pic-present,1,n,0.37543530005495995,None,,,,,sub-023,48.8,48.2,49.6,COM3,2024-02-15_11h16.33.508,2024_RDpaindiscrimination_maintask,2023.2.3,60.002364097176404,2024-02-15 11h16.52.114596 -0500,
0,0,0,0,,,,,1,0,1,0,0,0,0,0,,,,,583.901847400004,,,,,,581.7358223999618,583.8854510999518,,,,,,2,active,48.8,600.8858527999837,603.8382484000176,63.99999999999988,2.933,,,,,583.8857867999468,588.8853986000177,588.8854059999576,588.9019617999438,600.9187059999676,600.8858440000331,,,,,,,,,,,,,,,,,,,,,,,,,,,,,sub-023,48.8,48.2,49.6,COM3,2024-02-15_11h16.33.508,2024_RDpaindiscrimination_maintask,2023.2.3,60.002364097176404,2024-02-15 11h16.52.114596 -0500,
0,0,0,0,,,,,1,0,1,0,1,0,1,0,,,,,603.852063999977,,,,,,,,,,,,,3,inactive,48.8,620.8360720999772,623.1873076999327,45.50000000000012,2.332,,,,,603.8390646999469,608.8356185000157,608.8356254999526,608.8521169000305,620.8689583999803,620.8360646999208,,,,,,,,,,,,,,,,,,,,,,,,,,,,,sub-023,48.8,48.2,49.6,COM3,2024-02-15_11h16.33.508,2024_RDpaindiscrimination_maintask,2023.2.3,60.002364097176404,2024-02-15 11h16.52.114596 -0500,
0,0,0,0,,,,,1,0,1,0,,,,,0,0,0,0,625.885707099922,,,,,,,,,,,,,0,inactive,,,,,,,,,,,,,,,,623.1878993000137,625.8693224999588,625.8696090999292,630.8692483999766,630.8692550000269,630.88569679996,638.8690967999864,638.8690967999864,641.8357966999756,641.869180199923,641.869180199923,641.8526452999795,4.59,4.21,459,421,8,1.2,0.75,pic-absent,0,m,1.8378865000559017,None,,,,,sub-023,48.8,48.2,49.6,COM3,2024-02-15_11h16.33.508,2024_RDpaindiscrimination_maintask,2023.2.3,60.002364097176404,2024-02-15 11h16.52.114596 -0500,
0,0,0,0,,,,,1,0,1,0,,,,,1,0,1,0,641.869180199923,,,,,,,,,,,,,1,active,,,,,,,,,,,,,,,,,,641.8532154000131,646.8528733999701,646.852881000028,646.8692110999255,654.8526726999553,654.8526726999553,657.819316899986,657.8526262999512,657.8526262999512,657.8361365000019,4.07,4.73,407,473,8,1.2,0.75,pic-present,1,n,0.5309907000046223,None,,,,,sub-023,48.8,48.2,49.6,COM3,2024-02-15_11h16.33.508,2024_RDpaindiscrimination_maintask,2023.2.3,60.002364097176404,2024-02-15 11h16.52.114596 -0500,
0,0,0,0,,,,,1,0,1,0,,,,,2,0,2,0,657.8526262999512,,,,,,,,,,,,,2,active,,,,,,,,,,,,,,,,,,657.8365951000014,662.8362143000122,662.8362210999476,662.8526793000055,670.8360968999332,670.8360968999332,673.8028466999531,673.8361801999854,673.8361801999854,673.8196983999806,3.86,4.94,386,494,8,1.2,0.75,pic-present,1,n,0.7268701000139117,None,,,,,sub-023,48.8,48.2,49.6,COM3,2024-02-15_11h16.33.508,2024_RDpaindiscrimination_maintask,2023.2.3,60.002364097176404,2024-02-15 11h16.52.114596 -0500,
0,0,0,0,,,,,1,0,1,0,,,,,3,0,3,0,673.8361801999854,,,,,,,,,,,,,3,inactive,,,,,,,,,,,,,,,,,,673.8201677999459,678.8197249999503,678.8197322000051,678.8362312000245,686.8196859000018,686.8196859000018,689.7863499999512,689.8196901000338,689.8196901000338,689.8032659000019,4.44,4.36,444,436,8,1.2,0.75,pic-absent,0,m,0.40857249998953193,None,,,,,sub-023,48.8,48.2,49.6,COM3,2024-02-15_11h16.33.508,2024_RDpaindiscrimination_maintask,2023.2.3,60.002364097176404,2024-02-15 11h16.52.114596 -0500,
0,0,0,0,,,,,2,0,2,0,0,0,0,0,,,,,691.4530396999326,,,,,,689.8037594000343,691.436908399919,,,,,,0,inactive,48.8,708.4370002999203,713.0051231000107,47.99999999999997,4.548,,,,,691.437208599993,696.436574399937,696.4365811999887,696.4530472999904,708.4698773999698,708.4369916999713,,,,,,,,,,,,,,,,,,,,,,,,,,,,,sub-023,48.8,48.2,49.6,COM3,2024-02-15_11h16.33.508,2024_RDpaindiscrimination_maintask,2023.2.3,60.002364097176404,2024-02-15 11h16.52.114596 -0500,
0,0,0,0,,,,,2,0,2,0,1,0,1,0,,,,,713.0198672999395,,,,,,,,,,,,,1,active,48.8,730.0039127999917,732.9558385999408,35.49999999999998,2.933,,,,,713.0053829000099,718.0034860000014,718.003492699936,718.0199800999835,730.0367617999436,730.0039048999315,,,,,,,,,,,,,,,,,,,,,,,,,,,,,sub-023,48.8,48.2,49.6,COM3,2024-02-15_11h16.33.508,2024_RDpaindiscrimination_maintask,2023.2.3,60.002364097176404,2024-02-15 11h16.52.114596 -0500,
0,0,0,0,,,,,2,0,2,0,,,,,0,0,0,0,735.1535235999618,,,,,,,,,,,,,2,active,,,,,,,,,,,,,,,,732.9563979000086,735.1371816999745,735.1375132999383,740.1370240999386,740.1370309999911,740.1535469000228,748.1369473999366,748.1369473999366,751.1036908000242,751.1370294999797,751.1370294999797,751.1205304999603,4.22,4.58,422,458,8,1.2,0.75,pic-absent,0,m,0.7950548999942839,None,,,,,sub-023,48.8,48.2,49.6,COM3,2024-02-15_11h16.33.508,2024_RDpaindiscrimination_maintask,2023.2.3,60.002364097176404,2024-02-15 11h16.52.114596 -0500,
0,0,0,0,,,,,2,0,2,0,,,,,1,0,1,0,751.1370294999797,,,,,,,,,,,,,3,inactive,,,,,,,,,,,,,,,,,,751.121083999984,756.120571199921,756.1205786999781,756.1370735999662,764.1204918000149,764.1204918000149,767.0871919000056,767.1205716999248,767.1205716999248,767.104044299922,4.3,4.5,430,450,8,1.2,0.75,pic-present,1,n,0.518488600035198,None,,,,,sub-023,48.8,48.2,49.6,COM3,2024-02-15_11h16.33.508,2024_RDpaindiscrimination_maintask,2023.2.3,60.002364097176404,2024-02-15 11h16.52.114596 -0500,
0,0,0,0,,,,,2,0,2,0,,,,,2,0,2,0,767.1205716999248,,,,,,,,,,,,,0,inactive,,,,,,,,,,,,,,,,,,767.1045597000048,772.1040690999944,772.1040771999396,772.1205541000236,780.1040602999274,780.1040602999274,783.0706883999519,783.1039671000326,783.1039671000326,783.0875413999893,4.61,4.19,461,419,8,1.2,0.75,pic-absent,0,m,0.8516637999564409,None,,,,,sub-023,48.8,48.2,49.6,COM3,2024-02-15_11h16.33.508,2024_RDpaindiscrimination_maintask,2023.2.3,60.002364097176404,2024-02-15 11h16.52.114596 -0500,
0,0,0,0,,,,,2,0,2,0,,,,,3,0,3,0,783.1039671000326,,,,,,,,,,,,,1,active,,,,,,,,,,,,,,,,,,783.0880398999434,788.0875975999516,788.0876051000087,788.1040772999404,796.0874978000065,796.0874978000065,799.0541917999508,799.0875243999762,799.0875243999762,799.0710353000322,3.68,5.12,368,512,8,1.2,0.75,pic-absent,0,m,1.2352251000702381,None,,,,,sub-023,48.8,48.2,49.6,COM3,2024-02-15_11h16.33.508,2024_RDpaindiscrimination_maintask,2023.2.3,60.002364097176404,2024-02-15 11h16.52.114596 -0500,
0,0,0,0,,,,,3,0,3,0,0,0,0,0,,,,,800.8375416999916,,,,,,799.071545499959,800.8212715999689,,,,,,2,active,48.8,817.8215007999679,820.2894970999332,21.000000000000007,2.449,,,,,800.8215611999622,805.8210893999785,805.8210967000341,805.8375626999186,817.8544491999783,817.8214924000204,,,,,,,,,,,,,,,,,,,,,,,,,,,,,sub-023,48.8,48.2,49.6,COM3,2024-02-15_11h16.33.508,2024_RDpaindiscrimination_maintask,2023.2.3,60.002364097176404,2024-02-15 11h16.52.114596 -0500,
0,0,0,0,,,,,3,0,3,0,1,0,1,0,,,,,820.3043540000217,,,,,,,,,,,,,3,inactive,48.8,837.2882525000023,838.7235011999728,73.99999999999994,1.416,,,,,820.2902854999993,825.287876599934,825.2878829999827,825.3043388000224,837.3211074999999,837.2882447999436,,,,,,,,,,,,,,,,,,,,,,,,,,,,,sub-023,48.8,48.2,49.6,COM3,2024-02-15_11h16.33.508,2024_RDpaindiscrimination_maintask,2023.2.3,60.002364097176404,2024-02-15 11h16.52.114596 -0500,
0,0,0,0,,,,,3,0,3,0,,,,,0,0,0,0,840.7712161999661,,,,,,,,,,,,,0,inactive,,,,,,,,,,,,,,,,838.7236892000074,840.7549415000249,840.7552524999483,845.7548227999359,845.7548300999915,845.7712787999772,853.7546062000329,853.7546062000329,856.7213028999977,856.7546398999402,856.7546398999402,856.7382330999244,4.56,4.24,455,424,8,1.2,0.75,pic-present,1,n,1.132081100018695,None,,,,,sub-023,48.8,48.2,49.6,COM3,2024-02-15_11h16.33.508,2024_RDpaindiscrimination_maintask,2023.2.3,60.002364097176404,2024-02-15 11h16.52.114596 -0500,
0,0,0,0,,,,,3,0,3,0,,,,,1,0,1,0,856.7546398999402,,,,,,,,,,,,,1,active,,,,,,,,,,,,,,,,,,856.7387721999548,861.7382100999821,861.7382178999251,861.7546913999831,869.7381581999362,869.7381581999362,872.7049685999518,872.7382615000242,872.7382615000242,872.7217691999394,3.6,5.2,360,520,8,1.2,0.75,pic-absent,0,m,0.9046049000462517,None,,,,,sub-023,48.8,48.2,49.6,COM3,2024-02-15_11h16.33.508,2024_RDpaindiscrimination_maintask,2023.2.3,60.002364097176404,2024-02-15 11h16.52.114596 -0500,
0,0,0,0,,,,,3,0,3,0,,,,,2,0,2,0,872.7382615000242,,,,,,,,,,,,,2,active,,,,,,,,,,,,,,,,,,872.7222320999717,877.7217997999396,877.7218076999998,877.7383477999829,885.7216305999318,885.7216305999318,888.6883777999319,888.7217528999317,888.7217528999317,888.7052198000019,4.24,4.56,424,455,8,1.2,0.75,pic-absent,0,m,0.44495279993861914,None,,,,,sub-023,48.8,48.2,49.6,COM3,2024-02-15_11h16.33.508,2024_RDpaindiscrimination_maintask,2023.2.3,60.002364097176404,2024-02-15 11h16.52.114596 -0500,
0,0,0,0,,,,,3,0,3,0,,,,,3,0,3,0,888.7217528999317,,,,,,,,,,,,,3,inactive,,,,,,,,,,,,,,,,,,888.7056788000045,893.7053404999897,893.7053478999296,893.7217533999356,901.7052135999547,901.7052135999547,904.6719553000294,904.7051389999688,904.7051389999688,904.6887204999803,4.24,4.56,424,455,8,1.2,0.75,pic-present,1,n,1.0662941000191495,None,,,,,sub-023,48.8,48.2,49.6,COM3,2024-02-15_11h16.33.508,2024_RDpaindiscrimination_maintask,2023.2.3,60.002364097176404,2024-02-15 11h16.52.114596 -0500,
1,0,1,0,0,0,0,0,,,,,,,,,,,,,978.2893577999203,,,,974.3563430999639,976.1229288999457,976.1229368000058,978.272912699962,978.2732254000148,983.2728571000043,983.2728638999397,983.2893596999347,995.273237299989,0,inactive,48.8,995.273449899978,997.6753323000157,58.99999999999986,2.379,995.30608879996,,,,,,,,,,,,,,,,,,,,,,,,,,,,,,,,,,904.6891674000071,974.3562121000141,,,sub-023,48.8,48.2,49.6,COM3,2024-02-15_11h16.33.508,2024_RDpaindiscrimination_maintask,2023.2.3,60.002364097176404,2024-02-15 11h16.52.114596 -0500,
1,0,1,0,1,0,1,0,,,,,,,,,,,,,997.6895482999971,,,,,,,,997.6762909999816,1002.6731637999183,1002.6731708999723,1002.6895737999585,1014.6735312999226,1,active,48.2,1014.6736738999607,1017.5918622999452,13.0000000000001,2.899,1014.7063808999956,,,,,,,,,,,,,,,,,,,,,,,,,,,,,,,,,,,,,,sub-023,48.8,48.2,49.6,COM3,2024-02-15_11h16.33.508,2024_RDpaindiscrimination_maintask,2023.2.3,60.002364097176404,2024-02-15 11h16.52.114596 -0500,
1,0,1,0,2,0,2,0,,,,,,,,,,,,,1017.6063986999216,,,,,,,,1017.5925965999486,1022.5899393999716,1022.5899454000173,1022.6065030000173,1034.5903624999337,2,inactive,48.8,1034.5905055999756,1036.5423038000008,66.50000000000001,1.932,1034.6232206999557,,,,,,,,,,,,,,,,,,,,,,,,,,,,,,,,,,,,,,sub-023,48.8,48.2,49.6,COM3,2024-02-15_11h16.33.508,2024_RDpaindiscrimination_maintask,2023.2.3,60.002364097176404,2024-02-15 11h16.52.114596 -0500,
1,0,1,0,3,0,3,0,,,,,,,,,,,,,1036.556579099968,,,,,,,,1036.542592599988,1041.5402020999463,1041.540208899998,1041.5567027999787,1053.540617199964,3,inactive,48.8,1053.540760200005,1056.9763090999331,30.000000000000107,3.416,1053.5734802000225,,,,,,,,,,,,,,,,,,,,,,,,,,,,,,,,,,,,,,sub-023,48.8,48.2,49.6,COM3,2024-02-15_11h16.33.508,2024_RDpaindiscrimination_maintask,2023.2.3,60.002364097176404,2024-02-15 11h16.52.114596 -0500,
1,0,1,0,4,0,4,0,,,,,,,,,,,,,1056.9901755999308,,,,,,,,1056.9770936999703,1061.973684699973,1061.9736908000195,1061.9901820999803,1073.9740977999754,0,active,48.2,1073.9742422000272,1076.5921152000083,21.000000000000174,2.598,1074.0069718000013,,,,,,,,,,,,,,,,,,,,,,,,,,,,,,,,,,,,,,sub-023,48.8,48.2,49.6,COM3,2024-02-15_11h16.33.508,2024_RDpaindiscrimination_maintask,2023.2.3,60.002364097176404,2024-02-15 11h16.52.114596 -0500,
1,0,1,0,5,0,5,0,,,,,,,,,,,,,1076.6069772000192,,,,,,,,1076.5923792999238,1081.5905482999515,1081.5905545999995,1081.6070960999932,1093.5909566000337,1,inactive,48.8,1093.5910990999546,1096.8263916999567,51.499999999999886,3.216,1093.623845999944,,,,,,,,,,,,,,,,,,,,,,,,,,,,,,,,,,,,,,sub-023,48.8,48.2,49.6,COM3,2024-02-15_11h16.33.508,2024_RDpaindiscrimination_maintask,2023.2.3,60.002364097176404,2024-02-15 11h16.52.114596 -0500,
1,0,1,0,6,0,6,0,,,,,,,,,,,,,1096.8406130999792,,,,,,,,1096.8272164999507,1101.824099099962,1101.8241052000085,1101.8405953999609,1113.8245582999662,2,active,48.2,1113.8247002999997,1115.6606515999883,22.99999999999999,1.816,1113.857379999943,,,,,,,,,,,,,,,,,,,,,,,,,,,,,,,,,,,,,,sub-023,48.8,48.2,49.6,COM3,2024-02-15_11h16.33.508,2024_RDpaindiscrimination_maintask,2023.2.3,60.002364097176404,2024-02-15 11h16.52.114596 -0500,
1,0,1,0,7,0,7,0,,,,,,,,,,,,,1115.6740400999552,,,,,,,,1115.661281400011,1120.6576190999476,1120.6576255999971,1120.6741021999624,1132.658052999992,3,inactive,48.8,1132.6581922000041,1135.060571799986,65.00000000000006,2.382,1132.6909341999562,,,,,,,,,,,,,,,,,,,,,,,,,,,,,,,,,,,,,,sub-023,48.8,48.2,49.6,COM3,2024-02-15_11h16.33.508,2024_RDpaindiscrimination_maintask,2023.2.3,60.002364097176404,2024-02-15 11h16.52.114596 -0500,
1,0,1,0,8,0,8,0,,,,,,,,,,,,,1135.0743480999954,,,,,,,,1135.0613323999569,1140.0578072000062,1140.0578135999385,1140.0742939999327,1152.0582517000148,0,inactive,48.8,1152.0583910000278,1155.809293200029,46.99999999999994,3.731,1152.0910841999575,,,,,,,,,,,,,,,,,,,,,,,,,,,,,,,,,,,,,,sub-023,48.8,48.2,49.6,COM3,2024-02-15_11h16.33.508,2024_RDpaindiscrimination_maintask,2023.2.3,60.002364097176404,2024-02-15 11h16.52.114596 -0500,
1,0,1,0,9,0,9,0,,,,,,,,,,,,,1155.8245018000016,,,,,,,,1155.8101110999705,1160.808077899972,1160.8080844000215,1160.8245548999403,1172.808445099974,1,active,48.2,1172.8085834999802,1175.8771528999787,38.99999999999997,3.049,1172.8413277999498,,,,,,,,,,,,,,,,,,,,,,,,,,,,,,,,,,,,,,sub-023,48.8,48.2,49.6,COM3,2024-02-15_11h16.33.508,2024_RDpaindiscrimination_maintask,2023.2.3,60.002364097176404,2024-02-15 11h16.52.114596 -0500,
1,0,1,0,10,0,10,0,,,,,,,,,,,,,1175.8913322000299,,,,,,,,1175.8773851000005,1180.8748886999674,1180.8748957000207,1180.891438700026,1192.8753778999671,2,inactive,48.8,1192.875521000009,1194.4099836000241,58.499999999999936,1.515,1192.9081835999386,,,,,,,,,,,,,,,,,,,,,,,,,,,,,,,,,,,,,,sub-023,48.8,48.2,49.6,COM3,2024-02-15_11h16.33.508,2024_RDpaindiscrimination_maintask,2023.2.3,60.002364097176404,2024-02-15 11h16.52.114596 -0500,
1,0,1,0,11,0,11,0,,,,,,,,,,,,,1194.4249678000342,,,,,,,,1194.4102797999512,1199.4085670999484,1199.4085731999949,1199.425000899937,1211.4089258000022,3,active,48.2,1211.4090677999193,1213.7272378000198,35.00000000000006,2.298,1211.4417864999268,,,,,,,,,,,,,,,,,,,,,,,,,,,,,,,,,,,,,,sub-023,48.8,48.2,49.6,COM3,2024-02-15_11h16.33.508,2024_RDpaindiscrimination_maintask,2023.2.3,60.002364097176404,2024-02-15 11h16.52.114596 -0500,
1,0,1,0,12,0,12,0,,,,,,,,,,,,,1213.7418804999907,,,,,,,,1213.7280394999543,1218.7253961999668,1218.7254025000148,1218.7419006000273,1230.7258432999952,0,active,48.2,1230.7259944999823,1236.3280378000345,15.000000000000075,5.583,1230.7586847000057,,,,,,,,,,,,,,,,,,,,,,,,,,,,,,,,,,,,,,sub-023,48.8,48.2,49.6,COM3,2024-02-15_11h16.33.508,2024_RDpaindiscrimination_maintask,2023.2.3,60.002364097176404,2024-02-15 11h16.52.114596 -0500,
1,0,1,0,13,0,13,0,,,,,,,,,,,,,1236.342072899919,,,,,,,,1236.3289166999748,1241.325637599919,1241.3256439999677,1241.3421329000266,1253.3260176000185,1,inactive,48.8,1253.326164499973,1256.4772397000343,53.49999999999995,3.132,1253.3588891000254,,,,,,,,,,,,,,,,,,,,,,,,,,,,,,,,,,,,,,sub-023,48.8,48.2,49.6,COM3,2024-02-15_11h16.33.508,2024_RDpaindiscrimination_maintask,2023.2.3,60.002364097176404,2024-02-15 11h16.52.114596 -0500,
1,0,1,0,14,0,14,0,,,,,,,,,,,,,1256.4922934999922,,,,,,,,1256.4781118999235,1261.4758033999242,1261.475810199976,1261.4923487999476,1273.4762355999555,2,active,48.2,1273.4763820000226,1275.9274916999275,36.49999999999994,2.344,1273.5924714999273,,,,,,,,,,,,,,,,,,,,,,,,,,,,,,,,,,,,,,sub-023,48.8,48.2,49.6,COM3,2024-02-15_11h16.33.508,2024_RDpaindiscrimination_maintask,2023.2.3,60.002364097176404,2024-02-15 11h16.52.114596 -0500,
1,0,1,0,15,0,15,0,,,,,,,,,,,,,1275.9425000000047,,,,,,,,1275.9283069999656,1280.9260314999847,1280.9260380000342,1280.942522599944,1292.9264583999757,3,active,48.2,1292.9266011000145,1294.3613833999261,31.000000000000068,1.415,1292.9593329000054,,,,,,,,,,,,,,,,,,,,,,,,,,,,,,,,,,,,,,sub-023,48.8,48.2,49.6,COM3,2024-02-15_11h16.33.508,2024_RDpaindiscrimination_maintask,2023.2.3,60.002364097176404,2024-02-15 11h16.52.114596 -0500,
1,0,1,0,,,,,0,0,0,0,0,0,0,0,,,,,1298.1093316000188,,,,,,1297.1431856999407,1298.092874999973,,,,,,0,active,48.8,1315.0931805999717,1317.5446956999367,29.499999999999964,2.432,,1294.3615811999189,1294.3759677999187,1297.1428758000256,1298.0931586999213,1303.0928228999255,1303.0928292999743,1303.1093317000195,1315.126127799973,1315.0931721000234,,,,,,,,,,,,,,,,,,,,,,,,,,,,,sub-023,48.8,48.2,49.6,COM3,2024-02-15_11h16.33.508,2024_RDpaindiscrimination_maintask,2023.2.3,60.002364097176404,2024-02-15 11h16.52.114596 -0500,
1,0,1,0,,,,,0,0,0,0,1,0,1,0,,,,,1317.5596190999495,,,,,,,,,,,,,1,inactive,48.8,1334.5435827999609,1337.6284480999457,63.49999999999986,3.066,,,,,1317.5454359999858,1322.5431708999677,1322.543177900021,1322.5595636999933,1334.5764363999479,1334.5435748000164,,,,,,,,,,,,,,,,,,,,,,,,,,,,,sub-023,48.8,48.2,49.6,COM3,2024-02-15_11h16.33.508,2024_RDpaindiscrimination_maintask,2023.2.3,60.002364097176404,2024-02-15 11h16.52.114596 -0500,
1,0,1,0,,,,,0,0,0,0,,,,,0,0,0,0,1339.643169399933,,,,,,,,,,,,,2,active,,,,,,,,,,,,,,,,1337.6290024999762,1339.6268385000294,1339.6271601000335,1344.6267528999597,1344.626759900013,1344.6431435999693,1352.6265880999854,1352.6265880999854,1355.5932139999932,1355.6265355999349,1355.6265355999349,1355.6100633000024,3.84,4.96,384,496,8,1.2,0.75,pic-absent,0,m,1.6322056000353768,None,,,,,sub-023,48.8,48.2,49.6,COM3,2024-02-15_11h16.33.508,2024_RDpaindiscrimination_maintask,2023.2.3,60.002364097176404,2024-02-15 11h16.52.114596 -0500,
1,0,1,0,,,,,0,0,0,0,,,,,1,0,1,0,1355.6265355999349,,,,,,,,,,,,,3,inactive,,,,,,,,,,,,,,,,,,1355.6105829000007,1360.610075399978,1360.6100828999188,1360.6266079000197,1368.6101158999372,1368.6101158999372,1371.5767120999517,1371.6100570999552,1371.6100570999552,1371.5936025999254,4.52,4.28,451,428,8,1.2,0.75,pic-present,1,n,0.36770679999608546,None,,,,,sub-023,48.8,48.2,49.6,COM3,2024-02-15_11h16.33.508,2024_RDpaindiscrimination_maintask,2023.2.3,60.002364097176404,2024-02-15 11h16.52.114596 -0500,
1,0,1,0,,,,,0,0,0,0,,,,,2,0,2,0,1371.6100570999552,,,,,,,,,,,,,0,active,,,,,,,,,,,,,,,,,,1371.5940612999257,1376.5936240999727,1376.593631900032,1376.6100881999591,1384.5935398000292,1384.5935398000292,1387.5601754999952,1387.593551900005,1387.593551900005,1387.5770198999671,3.82,4.98,382,498,8,1.2,0.75,pic-absent,0,m,1.1290268000448123,None,,,,,sub-023,48.8,48.2,49.6,COM3,2024-02-15_11h16.33.508,2024_RDpaindiscrimination_maintask,2023.2.3,60.002364097176404,2024-02-15 11h16.52.114596 -0500,
1,0,1,0,,,,,0,0,0,0,,,,,3,0,3,0,1387.593551900005,,,,,,,,,,,,,1,inactive,,,,,,,,,,,,,,,,,,1387.5775292000035,1392.5770870000124,1392.5770948999561,1392.593597900006,1400.5770042999648,1400.5770042999648,1403.5437104000011,1403.5770950999577,1403.5770950999577,1403.5606004999718,4.5,4.3,450,430,8,1.2,0.75,pic-absent,0,m,1.6530404000077397,None,,,,,sub-023,48.8,48.2,49.6,COM3,2024-02-15_11h16.33.508,2024_RDpaindiscrimination_maintask,2023.2.3,60.002364097176404,2024-02-15 11h16.52.114596 -0500,
1,0,1,0,,,,,1,0,1,0,0,0,0,0,,,,,1405.4604017999955,,,,,,1403.5611084999982,1405.4439988000086,,,,,,2,inactive,48.8,1422.4443948999979,1424.9623417999828,65.99999999999983,2.499,,,,,1405.4443022999913,1410.444037899957,1410.444044200005,1410.460485599935,1422.477287299931,1422.444386499934,,,,,,,,,,,,,,,,,,,,,,,,,,,,,sub-023,48.8,48.2,49.6,COM3,2024-02-15_11h16.33.508,2024_RDpaindiscrimination_maintask,2023.2.3,60.002364097176404,2024-02-15 11h16.52.114596 -0500,
1,0,1,0,,,,,1,0,1,0,1,0,1,0,,,,,1424.977379799937,,,,,,,,,,,,,3,active,48.8,1441.9611635999754,1443.9793613000074,27.99999999999997,1.999,,,,,1424.9631070999894,1429.96085449995,1429.9608613000019,1429.9774228000315,1441.9942337999819,1441.9611559000332,,,,,,,,,,,,,,,,,,,,,,,,,,,,,sub-023,48.8,48.2,49.6,COM3,2024-02-15_11h16.33.508,2024_RDpaindiscrimination_maintask,2023.2.3,60.002364097176404,2024-02-15 11h16.52.114596 -0500,
1,0,1,0,,,,,1,0,1,0,,,,,0,0,0,0,1447.17758030002,,,,,,,,,,,,,0,inactive,,,,,,,,,,,,,,,,1443.9799424000084,1447.1611869999906,1447.161516299937,1452.1610801999923,1452.1610867999261,1452.1775837999303,1460.1609938000329,1460.1609938000329,1463.1277904999442,1463.1611247999826,1463.1611247999826,1463.1446493000258,4.5,4.3,450,430,8,1.2,0.75,pic-present,1,n,0.5408659999957308,None,,,,,sub-023,48.8,48.2,49.6,COM3,2024-02-15_11h16.33.508,2024_RDpaindiscrimination_maintask,2023.2.3,60.002364097176404,2024-02-15 11h16.52.114596 -0500,
1,0,1,0,,,,,1,0,1,0,,,,,1,0,1,0,1463.1611247999826,,,,,,,,,,,,,1,active,,,,,,,,,,,,,,,,,,1463.145209899987,1468.1446246999549,1468.1446316000074,1468.16107859998,1476.144596899976,1476.144596899976,1479.1111687999219,1479.1445368999848,1479.1445368999848,1479.12801580003,3.66,5.14,366,514,8,1.2,0.75,pic-absent,0,m,0.8296539000002667,None,,,,,sub-023,48.8,48.2,49.6,COM3,2024-02-15_11h16.33.508,2024_RDpaindiscrimination_maintask,2023.2.3,60.002364097176404,2024-02-15 11h16.52.114596 -0500,
1,0,1,0,,,,,1,0,1,0,,,,,2,0,2,0,1479.1445368999848,,,,,,,,,,,,,2,inactive,,,,,,,,,,,,,,,,,,1479.12849059992,1484.1280532999663,1484.1280604000203,1484.1445569000207,1492.1279719999293,1492.1279719999293,1495.0947619000217,1495.1280832999619,1495.1280832999619,1495.1115485000191,3.94,4.86,394,486,8,1.2,0.75,pic-present,1,n,0.37014380004256964,None,,,,,sub-023,48.8,48.2,49.6,COM3,2024-02-15_11h16.33.508,2024_RDpaindiscrimination_maintask,2023.2.3,60.002364097176404,2024-02-15 11h16.52.114596 -0500,
1,0,1,0,,,,,1,0,1,0,,,,,3,0,3,0,1495.1280832999619,,,,,,,,,,,,,3,active,,,,,,,,,,,,,,,,,,1495.1120531000197,1500.111614299938,1500.111621499993,1500.1281208000146,1508.111544799991,1508.111544799991,1511.0782373999245,1511.1115096999565,1511.1115096999565,1511.0950408999342,3.53,5.27,353,527,8,1.2,0.75,pic-absent,0,m,1.130596000002697,None,,,,,sub-023,48.8,48.2,49.6,COM3,2024-02-15_11h16.33.508,2024_RDpaindiscrimination_maintask,2023.2.3,60.002364097176404,2024-02-15 11h16.52.114596 -0500,
1,0,1,0,,,,,2,0,2,0,0,0,0,0,,,,,1512.4782585999928,,,,,,1511.0955282999203,1512.4618503999664,,,,,,0,inactive,48.8,1529.4622328999685,1531.02957959997,60.500000000000036,1.548,,,,,1512.4621573999757,1517.4617987999227,1517.4618060999783,1517.4782652999274,1529.4951155999443,1529.4622242000187,,,,,,,,,,,,,,,,,,,,,,,,,,,,,sub-023,48.8,48.2,49.6,COM3,2024-02-15_11h16.33.508,2024_RDpaindiscrimination_maintask,2023.2.3,60.002364097176404,2024-02-15 11h16.52.114596 -0500,
1,0,1,0,,,,,2,0,2,0,1,0,1,0,,,,,1531.0450301999226,,,,,,,,,,,,,1,active,48.8,1548.028981899959,1551.5151575999334,36.00000000000012,3.467,,,,,1531.0298662999412,1536.0285886999918,1536.0285957999295,1536.0451486000093,1548.0619546999224,1548.0289742000168,,,,,,,,,,,,,,,,,,,,,,,,,,,,,sub-023,48.8,48.2,49.6,COM3,2024-02-15_11h16.33.508,2024_RDpaindiscrimination_maintask,2023.2.3,60.002364097176404,2024-02-15 11h16.52.114596 -0500,
1,0,1,0,,,,,2,0,2,0,,,,,0,0,0,0,1554.4453928000294,,,,,,,,,,,,,2,active,,,,,,,,,,,,,,,,1551.5156993999844,1554.4290734999813,1554.4294056999497,1559.4288922999986,1559.4288995999377,1559.4492629999295,1567.428906199988,1567.428906199988,1570.4121826000046,1570.4288847999414,1570.4288847999414,1570.412372599938,4.71,4.09,471,409,8,1.2,0.75,pic-present,1,n,1.4700791001087055,None,,,,,sub-023,48.8,48.2,49.6,COM3,2024-02-15_11h16.33.508,2024_RDpaindiscrimination_maintask,2023.2.3,60.002364097176404,2024-02-15 11h16.52.114596 -0500,
1,0,1,0,,,,,2,0,2,0,,,,,1,0,1,0,1570.4288847999414,,,,,,,,,,,,,3,inactive,,,,,,,,,,,,,,,,,,1570.412890199921,1575.4124365999596,1575.4124484999338,1575.4289344999706,1583.412361899973,1583.412361899973,1586.3789877999807,1586.41235889995,1586.41235889995,1586.395944799995,3.35,5.45,335,545,8,1.2,0.75,pic-absent,0,m,0.7298816998954862,None,,,,,sub-023,48.8,48.2,49.6,COM3,2024-02-15_11h16.33.508,2024_RDpaindiscrimination_maintask,2023.2.3,60.002364097176404,2024-02-15 11h16.52.114596 -0500,
1,0,1,0,,,,,2,0,2,0,,,,,2,0,2,0,1586.41235889995,,,,,,,,,,,,,0,active,,,,,,,,,,,,,,,,,,1586.3964291999582,1591.3958714000182,1591.395878399955,1591.412407899974,1599.3957903999835,1599.3957903999835,1602.3625511999708,1602.3958848000038,1602.3958848000038,1602.379369799979,4.27,4.53,426,453,8,1.2,0.75,pic-present,1,n,0.4583081000018865,None,,,,,sub-023,48.8,48.2,49.6,COM3,2024-02-15_11h16.33.508,2024_RDpaindiscrimination_maintask,2023.2.3,60.002364097176404,2024-02-15 11h16.52.114596 -0500,
1,0,1,0,,,,,2,0,2,0,,,,,3,0,3,0,1602.3958848000038,,,,,,,,,,,,,1,inactive,,,,,,,,,,,,,,,,,,1602.3798466000007,1607.379440599936,1607.3794473999878,1607.3958424000302,1615.3792592999525,1615.3792592999525,1618.3459479999729,1618.3792979000136,1618.3792979000136,1618.362801100011,3.76,5.04,376,504,8,1.2,0.75,pic-present,0,m,0.5633653999539092,None,,,,,sub-023,48.8,48.2,49.6,COM3,2024-02-15_11h16.33.508,2024_RDpaindiscrimination_maintask,2023.2.3,60.002364097176404,2024-02-15 11h16.52.114596 -0500,
1,0,1,0,,,,,3,0,3,0,0,0,0,0,,,,,1619.7626327000326,,,,,,1618.3632856999757,1619.746243200032,,,,,,2,active,48.8,1636.7464796999702,1638.8481049999828,61.99999999999992,2.082,,,,,1619.7465413999744,1624.7462230999954,1624.7462302999338,1624.7626950999256,1636.779477700009,1636.7464711000212,,,,,,,,,,,,,,,,,,,,,,,,,,,,,sub-023,48.8,48.2,49.6,COM3,2024-02-15_11h16.33.508,2024_RDpaindiscrimination_maintask,2023.2.3,60.002364097176404,2024-02-15 11h16.52.114596 -0500,
1,0,1,0,,,,,3,0,3,0,1,0,1,0,,,,,1638.862844599993,,,,,,,,,,,,,3,inactive,48.8,1655.8468614999438,1658.4662690999685,57.499999999999865,2.6,,,,,1638.8483669999987,1643.8464511999628,1643.8464590000222,1643.8628912999993,1655.8796868999489,1655.8468538000016,,,,,,,,,,,,,,,,,,,,,,,,,,,,,sub-023,48.8,48.2,49.6,COM3,2024-02-15_11h16.33.508,2024_RDpaindiscrimination_maintask,2023.2.3,60.002364097176404,2024-02-15 11h16.52.114596 -0500,
1,0,1,0,,,,,3,0,3,0,,,,,0,0,0,0,1661.4298101000022,,,,,,,,,,,,,0,inactive,,,,,,,,,,,,,,,,1658.466798499925,1661.41339110001,1661.4136979000177,1666.4133129999973,1666.4133199999342,1666.4299221999245,1674.4132447999436,1674.4132447999436,1677.3799403000157,1677.4132789999712,1677.4132789999712,1677.3967893000226,4.15,4.65,415,465,8,1.2,0.75,pic-absent,1,n,1.2084930000128224,None,,,,,sub-023,48.8,48.2,49.6,COM3,2024-02-15_11h16.33.508,2024_RDpaindiscrimination_maintask,2023.2.3,60.002364097176404,2024-02-15 11h16.52.114596 -0500,
1,0,1,0,,,,,3,0,3,0,,,,,1,0,1,0,1677.4132789999712,,,,,,,,,,,,,1,active,,,,,,,,,,,,,,,,,,1677.397349899984,1682.396826399956,1682.3968333000084,1682.4133198999334,1690.3967515999684,1690.3967515999684,1693.3634372999659,1693.3968112999573,1693.3968112999573,1693.3802943000337,4.23,4.57,423,457,8,1.2,0.75,pic-present,1,n,0.6973744999850169,None,,,,,sub-023,48.8,48.2,49.6,COM3,2024-02-15_11h16.33.508,2024_RDpaindiscrimination_maintask,2023.2.3,60.002364097176404,2024-02-15 11h16.52.114596 -0500,
1,0,1,0,,,,,3,0,3,0,,,,,2,0,2,0,1693.3968112999573,,,,,,,,,,,,,2,inactive,,,,,,,,,,,,,,,,,,1693.3807608999778,1698.3803165999707,1698.3803239000263,1698.396837899927,1706.3803016999736,1706.3803016999736,1709.346964700031,1709.3802735999925,1709.3802735999925,1709.3638383999933,3.99,4.81,399,480,8,1.2,0.75,pic-absent,1,n,0.42526659998111427,None,,,,,sub-023,48.8,48.2,49.6,COM3,2024-02-15_11h16.33.508,2024_RDpaindiscrimination_maintask,2023.2.3,60.002364097176404,2024-02-15 11h16.52.114596 -0500,
1,0,1,0,,,,,3,0,3,0,,,,,3,0,3,0,1709.3802735999925,,,,,,,,,,,,,3,active,,,,,,,,,,,,,,,,,,1709.3643368999474,1714.3638236999977,1714.3638314999407,1714.3803188999882,1722.3637879999587,1722.3637879999587,1725.330529400031,1725.3638211999787,1725.3638211999787,1725.3473015999189,4.32,4.48,432,448,8,1.2,0.75,pic-present,0,m,1.0464317000005394,None,,,,,sub-023,48.8,48.2,49.6,COM3,2024-02-15_11h16.33.508,2024_RDpaindiscrimination_maintask,2023.2.3,60.002364097176404,2024-02-15 11h16.52.114596 -0500,
,,,,,,,,,,,,,,,,,,,,,,,,,,,,,,,,,,,,,,,,,,,,,,,,,,,,,,,,,,,,,,,,,,,,,,,,,,1725.3477379999822,1727.5141488999361,1727.514169299975,1737.514023100026,,,,,,,,,,,
