trials.thisRepN,trials.thisTrialN,trials.thisN,trials.thisIndex,loop_test.thisRepN,loop_test.thisTrialN,loop_test.thisN,loop_test.thisIndex,loop_eval_discri.thisRepN,loop_eval_discri.thisTrialN,loop_eval_discri.thisN,loop_eval_discri.thisIndex,loop_eval.thisRepN,loop_eval.thisTrialN,loop_eval.thisN,loop_eval.thisIndex,loop_discri.thisRepN,loop_discri.thisTrialN,loop_discri.thisN,loop_discri.thisIndex,thisRow.t,notes,Set_up.started,Set_up.stopped,electrode_check.started,electrode_check.stopped,instructions_eval.started,instructions_eval.stopped,pause_5_test.started,pause_5_test.stopped,Phase_Test.started,thermode_locali.started,Phase_Test.stopped,loca_thermode,condition,temp_trial_sent,eval_douleur.started,eval_douleur.stopped,ratingScale.response,ratingScale.rt,thermode_locali.stopped,Fin_test.started,text.started,Fin_test.stopped,pause_5_EVA.started,pause_5_EVA.stopped,tâche_EVA.started,thermode_locali_EVA.started,thermode_locali_EVA.stopped,tâche_EVA.stopped,instructions_discrim.started,instructions_discrim.stopped,pause_5_pic.started,pause_5_pic.stopped,tâche_PIC.started,thermode_locali_pic.started,percu_or.started,responser.started,thermode_locali_pic.stopped,percu_or.stopped,responser.stopped,tâche_PIC.stopped,dur_plateau1,dur_plateau2,dur_plateau1_sent,dur_plateau2_sent,start_plateau_2_resp,dur_pic,dur_rise,pic_presence,pic_response,discrimin_resp.keys,discrimin_resp.rt,discrimin_resp.duration,break_entre_bloc.started,break_entre_bloc.stopped,merci.started,merci.stopped,participant,temp_flat,temp_active,temp_pic_set,com_thermode,date,expName,psychopyVersion,frameRate,expStart,
0,0,0,0,0,0,0,0,,,,,,,,,,,,,154.85368170007132,,0.0020243001636117697,135.03714790008962,135.0375335002318,150.35400220006704,150.35401100013405,154.82063530012965,154.82091500004753,159.837152000051,159.83715760009363,159.8537190000061,171.83727630018257,0,active,44.3,171.83751300000586,178.47232270007953,1.999999999999997,6.612,,,,,,,,,,,,,,,,,,,,,,,,,,,,,,,,,,,,,,,sub-039,47.5,44.3,48.2,COM3,2024-06-03_13h36.25.110,2024_RDpaindiscrimination_maintask,2023.2.3,59.99894403848335,2024-06-03 13h36.55.985148 -0400,
0,0,0,0,1,0,1,0,,,,,,,,,,,,,178.48731150012463,,,,,,,,178.47327810013667,183.470873700222,183.47088060015813,183.48735470022075,195.4712866002228,1,active,44.3,195.4714328001719,200.4065996001009,0.0,4.916,195.50414340011775,,,,,,,,,,,,,,,,,,,,,,,,,,,,,,,,,,,,,,sub-039,47.5,44.3,48.2,COM3,2024-06-03_13h36.25.110,2024_RDpaindiscrimination_maintask,2023.2.3,59.99894403848335,2024-06-03 13h36.55.985148 -0400,
0,0,0,0,2,0,2,0,,,,,,,,,,,,,200.42086450010538,,,,,,,,200.40740100014955,205.40438470011577,205.40439130016603,205.42087940010242,217.40481100021861,2,inactive,47.5,217.40496100019664,220.85760080022737,51.99999999999996,3.434,217.43767720018514,,,,,,,,,,,,,,,,,,,,,,,,,,,,,,,,,,,,,,sub-039,47.5,44.3,48.2,COM3,2024-06-03_13h36.25.110,2024_RDpaindiscrimination_maintask,2023.2.3,59.99894403848335,2024-06-03 13h36.55.985148 -0400,
0,0,0,0,3,0,3,0,,,,,,,,,,,,,220.87104650004767,,,,,,,,220.85841570002958,225.85457160021178,225.85457760002464,225.87110970006324,237.85502100014128,3,active,44.3,237.85517400014214,245.1066543001216,44.99999999999999,7.233,237.88789440016262,,,,,,,,,,,,,,,,,,,,,,,,,,,,,,,,,,,,,,sub-039,47.5,44.3,48.2,COM3,2024-06-03_13h36.25.110,2024_RDpaindiscrimination_maintask,2023.2.3,59.99894403848335,2024-06-03 13h36.55.985148 -0400,
0,0,0,0,4,0,4,0,,,,,,,,,,,,,245.12129960022867,,,,,,,,245.10750790010206,250.10485090012662,250.10485760006122,250.1213914002292,262.1053175001871,0,inactive,47.5,262.10546690016054,266.44148640008643,0.0,4.317,262.13812720007263,,,,,,,,,,,,,,,,,,,,,,,,,,,,,,,,,,,,,,sub-039,47.5,44.3,48.2,COM3,2024-06-03_13h36.25.110,2024_RDpaindiscrimination_maintask,2023.2.3,59.99894403848335,2024-06-03 13h36.55.985148 -0400,
0,0,0,0,5,0,5,0,,,,,,,,,,,,,266.4548549000174,,,,,,,,266.44233240000904,271.43841580022126,271.43842280004174,271.4549413002096,283.43872360000387,1,inactive,47.5,283.4388692001812,287.75660800002515,48.49999999999991,4.299,283.47158550005406,,,,,,,,,,,,,,,,,,,,,,,,,,,,,,,,,,,,,,sub-039,47.5,44.3,48.2,COM3,2024-06-03_13h36.25.110,2024_RDpaindiscrimination_maintask,2023.2.3,59.99894403848335,2024-06-03 13h36.55.985148 -0400,
0,0,0,0,6,0,6,0,,,,,,,,,,,,,287.7717401001137,,,,,,,,287.7574033001438,292.7553009002004,292.755307600135,292.7718295000959,304.75565950013697,2,active,44.3,304.75580960023217,309.5571338001173,0.0,4.783,304.788512500003,,,,,,,,,,,,,,,,,,,,,,,,,,,,,,,,,,,,,,sub-039,47.5,44.3,48.2,COM3,2024-06-03_13h36.25.110,2024_RDpaindiscrimination_maintask,2023.2.3,59.99894403848335,2024-06-03 13h36.55.985148 -0400,
0,0,0,0,7,0,7,0,,,,,,,,,,,,,309.5719823001418,,,,,,,,309.557881800225,314.5555289001204,314.55553580005653,314.5720352001954,326.55580200022087,3,inactive,47.5,326.55595130007714,330.10705460002646,50.0,3.532,326.58870630012825,,,,,,,,,,,,,,,,,,,,,,,,,,,,,,,,,,,,,,sub-039,47.5,44.3,48.2,COM3,2024-06-03_13h36.25.110,2024_RDpaindiscrimination_maintask,2023.2.3,59.99894403848335,2024-06-03 13h36.55.985148 -0400,
0,0,0,0,8,0,8,0,,,,,,,,,,,,,330.12219970021397,,,,,,,,330.10787430009805,335.1057638002094,335.1057702000253,335.1222852000501,347.10615300014615,0,active,44.3,347.10629860009067,355.15802040020935,1.0000000000000673,8.033,347.1390351001173,,,,,,,,,,,,,,,,,,,,,,,,,,,,,,,,,,,,,,sub-039,47.5,44.3,48.2,COM3,2024-06-03_13h36.25.110,2024_RDpaindiscrimination_maintask,2023.2.3,59.99894403848335,2024-06-03 13h36.55.985148 -0400,
0,0,0,0,9,0,9,0,,,,,,,,,,,,,355.1724680000916,,,,,,,,355.1588156002108,360.1560920001939,360.15609900001436,360.17254560021684,372.1564488001168,1,active,44.3,372.1565913001541,379.60796770011075,1.5000000000000002,7.433,372.1893332002219,,,,,,,,,,,,,,,,,,,,,,,,,,,,,,,,,,,,,,sub-039,47.5,44.3,48.2,COM3,2024-06-03_13h36.25.110,2024_RDpaindiscrimination_maintask,2023.2.3,59.99894403848335,2024-06-03 13h36.55.985148 -0400,
0,0,0,0,10,0,10,0,,,,,,,,,,,,,379.62277040001936,,,,,,,,379.60870100022294,384.60624460014515,384.60625130007975,384.62269230000675,396.60664530005306,2,inactive,47.5,396.60678790020756,398.9588827001862,52.999999999999986,2.333,396.63951340015046,,,,,,,,,,,,,,,,,,,,,,,,,,,,,,,,,,,,,,sub-039,47.5,44.3,48.2,COM3,2024-06-03_13h36.25.110,2024_RDpaindiscrimination_maintask,2023.2.3,59.99894403848335,2024-06-03 13h36.55.985148 -0400,
0,0,0,0,11,0,11,0,,,,,,,,,,,,,398.9729308001697,,,,,,,,398.95971190021373,403.9563695001416,403.9563752000686,403.97291910019703,415.95696750003844,3,active,44.3,415.95711240009405,422.70874750008807,33.999999999999986,6.733,415.989764300175,,,,,,,,,,,,,,,,,,,,,,,,,,,,,,,,,,,,,,sub-039,47.5,44.3,48.2,COM3,2024-06-03_13h36.25.110,2024_RDpaindiscrimination_maintask,2023.2.3,59.99894403848335,2024-06-03 13h36.55.985148 -0400,
0,0,0,0,12,0,12,0,,,,,,,,,,,,,422.7231253001373,,,,,,,,422.70949680008925,427.706714700209,427.70672100014053,427.72320160013624,439.7071156001184,0,inactive,47.5,439.70726040005684,445.2085361001082,13.50000000000003,5.482,439.74000680004247,,,,,,,,,,,,,,,,,,,,,,,,,,,,,,,,,,,,,,sub-039,47.5,44.3,48.2,COM3,2024-06-03_13h36.25.110,2024_RDpaindiscrimination_maintask,2023.2.3,59.99894403848335,2024-06-03 13h36.55.985148 -0400,
0,0,0,0,13,0,13,0,,,,,,,,,,,,,445.22340280003846,,,,,,,,445.2092718000058,450.20695950021036,450.2069664001465,450.22344470000826,462.2073565002065,1,inactive,47.5,462.20749860000797,466.3590630001854,48.500000000000114,4.133,462.24023810005747,,,,,,,,,,,,,,,,,,,,,,,,,,,,,,,,,,,,,,sub-039,47.5,44.3,48.2,COM3,2024-06-03_13h36.25.110,2024_RDpaindiscrimination_maintask,2023.2.3,59.99894403848335,2024-06-03 13h36.55.985148 -0400,
0,0,0,0,14,0,14,0,,,,,,,,,,,,,466.3736409000121,,,,,,,,466.35986390011385,471.3571793001611,471.35718610021286,471.3736770001706,483.3575448000338,2,active,44.3,483.35768850008026,487.84216180001386,0.0,4.466,483.39039360010065,,,,,,,,,,,,,,,,,,,,,,,,,,,,,,,,,,,,,,sub-039,47.5,44.3,48.2,COM3,2024-06-03_13h36.25.110,2024_RDpaindiscrimination_maintask,2023.2.3,59.99894403848335,2024-06-03 13h36.55.985148 -0400,
0,0,0,0,15,0,15,0,,,,,,,,,,,,,487.85713960020803,,,,,,,,487.84297210001387,492.8406952000223,492.84070190018974,492.8571960001718,504.8411543001421,3,inactive,47.5,504.8413002002053,508.5433982000686,70.0,3.683,504.8739897001069,,,,,,,,,,,,,,,,,,,,,,,,,,,,,,,,,,,,,,sub-039,47.5,44.3,48.2,COM3,2024-06-03_13h36.25.110,2024_RDpaindiscrimination_maintask,2023.2.3,59.99894403848335,2024-06-03 13h36.55.985148 -0400,
0,0,0,0,,,,,0,0,0,0,0,0,0,0,,,,,557.3912568001542,,,,,,553.4085655000526,557.3748907002155,,,,,,0,inactive,47.5,574.3753295000643,579.5781130001415,3.0,5.184,,508.54396480019204,508.55745380022563,553.4082348002121,557.3751885001548,562.3748381000478,562.3748450002167,562.3913423002232,574.4081062001642,574.375321000116,,,,,,,,,,,,,,,,,,,,,,,,,,,,,sub-039,47.5,44.3,48.2,COM3,2024-06-03_13h36.25.110,2024_RDpaindiscrimination_maintask,2023.2.3,59.99894403848335,2024-06-03 13h36.55.985148 -0400,
0,0,0,0,,,,,0,0,0,0,1,0,1,0,,,,,579.5915271001868,,,,,,,,,,,,,1,active,47.5,596.5755044000689,608.2782853001263,29.99999999999997,11.684,,,,,579.5789139000699,584.5750374000054,584.5750444000587,584.5916057000868,596.6084067001939,596.5754961001221,,,,,,,,,,,,,,,,,,,,,,,,,,,,,sub-039,47.5,44.3,48.2,COM3,2024-06-03_13h36.25.110,2024_RDpaindiscrimination_maintask,2023.2.3,59.99894403848335,2024-06-03 13h36.55.985148 -0400,
0,0,0,0,,,,,0,0,0,0,,,,,0,0,0,0,612.0585351001937,,,,,,,,,,,,,2,inactive,,,,,,,,,,,,,,,,608.27887070016,612.0421001000796,612.0424145001452,617.0421115001664,617.042118600104,617.0585573001299,625.0420122002251,625.0420122002251,628.0087293002289,628.0420347000472,628.0420347000472,628.0255602002144,4.12,4.68,412,468,8,1.2,0.75,pic-absent,0,m,1.0906193999107927,None,,,,,sub-039,47.5,44.3,48.2,COM3,2024-06-03_13h36.25.110,2024_RDpaindiscrimination_maintask,2023.2.3,59.99894403848335,2024-06-03 13h36.55.985148 -0400,
0,0,0,0,,,,,0,0,0,0,,,,,1,0,1,0,628.0420347000472,,,,,,,,,,,,,3,active,,,,,,,,,,,,,,,,,,628.0262074000202,633.025543600088,633.0255508001428,633.042098400183,641.0255267000757,641.0255267000757,643.9922213000245,644.0255933001172,644.0255933001172,644.0090619002003,3.66,5.14,366,514,8,1.2,0.75,pic-absent,0,m,1.0990850999951363,None,,,,,sub-039,47.5,44.3,48.2,COM3,2024-06-03_13h36.25.110,2024_RDpaindiscrimination_maintask,2023.2.3,59.99894403848335,2024-06-03 13h36.55.985148 -0400,
0,0,0,0,,,,,0,0,0,0,,,,,2,0,2,0,644.0255933001172,,,,,,,,,,,,,0,active,,,,,,,,,,,,,,,,,,644.0095273000188,649.0090955002233,649.0091027000453,649.0255813000258,657.0090172002092,657.0090172002092,659.9756868002005,660.0089828001801,660.0089828001801,659.9925789001863,4.35,4.45,434,445,8,1.2,0.75,pic-present,0,m,1.1117414000909775,None,,,,,sub-039,47.5,44.3,48.2,COM3,2024-06-03_13h36.25.110,2024_RDpaindiscrimination_maintask,2023.2.3,59.99894403848335,2024-06-03 13h36.55.985148 -0400,
0,0,0,0,,,,,0,0,0,0,,,,,3,0,3,0,660.0089828001801,,,,,,,,,,,,,1,inactive,,,,,,,,,,,,,,,,,,659.9930681001861,664.9925400000066,664.9925473001786,665.0090561001562,672.992454700172,672.992454700172,675.9592170000542,675.9924866000656,675.9924866000656,675.9759991001338,4.49,4.31,449,430,8,1.2,0.75,pic-present,1,n,1.071896000066772,None,,,,,sub-039,47.5,44.3,48.2,COM3,2024-06-03_13h36.25.110,2024_RDpaindiscrimination_maintask,2023.2.3,59.99894403848335,2024-06-03 13h36.55.985148 -0400,
0,0,0,0,,,,,1,0,1,0,0,0,0,0,,,,,678.9425868000835,,,,,,675.9764746001456,678.9261206001975,,,,,,2,active,47.5,695.9263988002203,703.1607348001562,52.49999999999992,7.156,,,,,678.9264565000776,683.9260534001514,683.9260605000891,683.9425395000726,696.0093565001152,695.9263908001594,,,,,,,,,,,,,,,,,,,,,,,,,,,,,sub-039,47.5,44.3,48.2,COM3,2024-06-03_13h36.25.110,2024_RDpaindiscrimination_maintask,2023.2.3,59.99894403848335,2024-06-03 13h36.55.985148 -0400,
0,0,0,0,,,,,1,0,1,0,1,0,1,0,,,,,703.1761239001062,,,,,,,,,,,,,3,inactive,47.5,720.1599602000788,727.7296835000161,53.499999999999915,7.551,,,,,703.1615074002184,708.159656500211,708.1596633000299,708.1761489000637,720.192959100008,720.1599522000179,,,,,,,,,,,,,,,,,,,,,,,,,,,,,sub-039,47.5,44.3,48.2,COM3,2024-06-03_13h36.25.110,2024_RDpaindiscrimination_maintask,2023.2.3,59.99894403848335,2024-06-03 13h36.55.985148 -0400,
0,0,0,0,,,,,1,0,1,0,,,,,0,0,0,0,729.0764385000803,,,,,,,,,,,,,0,active,,,,,,,,,,,,,,,,727.7301755000371,729.0600641001947,729.0603845000733,734.0599354000296,734.0599423001986,734.076494500041,742.0599097001832,742.0599097001832,745.0266049001366,745.0599411001895,745.0599411001895,745.0434695000295,4.39,4.41,438,441,8,1.2,0.75,pic-absent,0,m,1.3725190002005547,None,,,,,sub-039,47.5,44.3,48.2,COM3,2024-06-03_13h36.25.110,2024_RDpaindiscrimination_maintask,2023.2.3,59.99894403848335,2024-06-03 13h36.55.985148 -0400,
0,0,0,0,,,,,1,0,1,0,,,,,1,0,1,0,745.0599411001895,,,,,,,,,,,,,1,inactive,,,,,,,,,,,,,,,,,,745.0440371001605,750.0434870000463,750.0434941002168,750.0599967001472,758.0434229001403,758.0434229001403,761.0101563001517,761.0434890000615,761.0434890000615,761.027001200011,3.69,5.11,369,511,8,1.2,0.75,pic-present,0,m,1.4251943998970091,None,,,,,sub-039,47.5,44.3,48.2,COM3,2024-06-03_13h36.25.110,2024_RDpaindiscrimination_maintask,2023.2.3,59.99894403848335,2024-06-03 13h36.55.985148 -0400,
0,0,0,0,,,,,1,0,1,0,,,,,2,0,2,0,761.0434890000615,,,,,,,,,,,,,2,active,,,,,,,,,,,,,,,,,,761.027514200192,766.026993600186,766.0270006000064,766.0434555001557,774.0269326001871,774.0269326001871,776.9936211002059,777.026952000102,777.026952000102,777.0104997002054,3.53,5.27,353,527,8,1.2,0.75,pic-absent,0,m,2.281378800049424,None,,,,,sub-039,47.5,44.3,48.2,COM3,2024-06-03_13h36.25.110,2024_RDpaindiscrimination_maintask,2023.2.3,59.99894403848335,2024-06-03 13h36.55.985148 -0400,
0,0,0,0,,,,,1,0,1,0,,,,,3,0,3,0,777.026952000102,,,,,,,,,,,,,3,active,,,,,,,,,,,,,,,,,,777.0109858000651,782.0105419000611,782.0105491001159,782.026995500084,790.0103795002215,790.0103795002215,792.9771204001736,793.010453000199,793.010453000199,792.9939238000661,3.68,5.12,368,512,8,1.2,0.75,pic-absent,0,m,2.198120800079778,None,,,,,sub-039,47.5,44.3,48.2,COM3,2024-06-03_13h36.25.110,2024_RDpaindiscrimination_maintask,2023.2.3,59.99894403848335,2024-06-03 13h36.55.985148 -0400,
0,0,0,0,,,,,2,0,2,0,0,0,0,0,,,,,794.9438513000496,,,,,,792.9944117001723,794.9276099000126,,,,,,0,inactive,47.5,811.9279071001802,815.3962914000731,0.0,3.45,,,,,794.927917700028,799.9274090002291,799.9274156000465,799.9439113000408,811.9606110001914,811.9278965000995,,,,,,,,,,,,,,,,,,,,,,,,,,,,,sub-039,47.5,44.3,48.2,COM3,2024-06-03_13h36.25.110,2024_RDpaindiscrimination_maintask,2023.2.3,59.99894403848335,2024-06-03 13h36.55.985148 -0400,
0,0,0,0,,,,,2,0,2,0,1,0,1,0,,,,,815.410790100228,,,,,,,,,,,,,1,active,47.5,832.3945311000571,837.512875400018,43.5,5.099,,,,,815.3971090000123,820.3942921000998,820.3942995001562,820.4107553001959,832.4274940001778,832.394523500232,,,,,,,,,,,,,,,,,,,,,,,,,,,,,sub-039,47.5,44.3,48.2,COM3,2024-06-03_13h36.25.110,2024_RDpaindiscrimination_maintask,2023.2.3,59.99894403848335,2024-06-03 13h36.55.985148 -0400,
0,0,0,0,,,,,2,0,2,0,,,,,0,0,0,0,839.7609943000134,,,,,,,,,,,,,2,inactive,,,,,,,,,,,,,,,,837.5133980000392,839.7445655001793,839.7448732000776,844.7445398001,844.7445468001533,844.7610385001171,852.7444675001316,852.7444675001316,855.7111614001915,855.7445056000724,855.7445056000724,855.7280128002167,4.37,4.43,437,443,8,1.2,0.75,pic-present,1,n,1.587775600142777,None,,,,,sub-039,47.5,44.3,48.2,COM3,2024-06-03_13h36.25.110,2024_RDpaindiscrimination_maintask,2023.2.3,59.99894403848335,2024-06-03 13h36.55.985148 -0400,
0,0,0,0,,,,,2,0,2,0,,,,,1,0,1,0,855.7445056000724,,,,,,,,,,,,,3,active,,,,,,,,,,,,,,,,,,855.7285662000068,860.7280471001286,860.7280541001819,860.7445735000074,868.7279707000125,868.7279707000125,871.6946905001532,871.7280023000203,871.7280023000203,871.7114844000898,4.07,4.73,407,473,8,1.2,0.75,pic-present,1,n,1.0327754998579621,None,,,,,sub-039,47.5,44.3,48.2,COM3,2024-06-03_13h36.25.110,2024_RDpaindiscrimination_maintask,2023.2.3,59.99894403848335,2024-06-03 13h36.55.985148 -0400,
0,0,0,0,,,,,2,0,2,0,,,,,2,0,2,0,871.7280023000203,,,,,,,,,,,,,0,inactive,,,,,,,,,,,,,,,,,,871.7119358000346,876.7115894001909,876.7115970000159,876.7280542000663,884.71132150013,884.71132150013,887.6780426001642,887.7114461001474,887.7114461001474,887.6948723001406,3.66,5.14,366,514,8,1.2,0.75,pic-absent,0,m,1.4213227999862283,None,,,,,sub-039,47.5,44.3,48.2,COM3,2024-06-03_13h36.25.110,2024_RDpaindiscrimination_maintask,2023.2.3,59.99894403848335,2024-06-03 13h36.55.985148 -0400,
0,0,0,0,,,,,2,0,2,0,,,,,3,0,3,0,887.7114461001474,,,,,,,,,,,,,1,active,,,,,,,,,,,,,,,,,,887.6954565001652,892.6948957000859,892.6949036000296,892.711447100155,900.6948266001418,900.6948266001418,903.6615979000926,903.6948647000827,903.6948647000827,903.6783684000839,4.02,4.78,401,478,8,1.2,0.75,pic-present,1,n,1.2892537999432534,None,,,,,sub-039,47.5,44.3,48.2,COM3,2024-06-03_13h36.25.110,2024_RDpaindiscrimination_maintask,2023.2.3,59.99894403848335,2024-06-03 13h36.55.985148 -0400,
0,0,0,0,,,,,3,0,3,0,0,0,0,0,,,,,905.5616487001535,,,,,,903.6788632001262,905.5451719001867,,,,,,2,active,47.5,922.5455228001811,927.9312009001151,52.50000000000003,5.367,,,,,905.5454936001915,910.5451404000632,910.545146800112,910.5615940000862,922.5783994002268,922.545514000114,,,,,,,,,,,,,,,,,,,,,,,,,,,,,sub-039,47.5,44.3,48.2,COM3,2024-06-03_13h36.25.110,2024_RDpaindiscrimination_maintask,2023.2.3,59.99894403848335,2024-06-03 13h36.55.985148 -0400,
0,0,0,0,,,,,3,0,3,0,1,0,1,0,,,,,927.9452368000057,,,,,,,,,,,,,3,inactive,47.5,944.929185200017,949.9808170001488,51.99999999999992,5.033,,,,,927.9314618001226,932.9287926000543,932.9287999002263,932.9453051001765,944.9620079000015,944.9291773000732,,,,,,,,,,,,,,,,,,,,,,,,,,,,,sub-039,47.5,44.3,48.2,COM3,2024-06-03_13h36.25.110,2024_RDpaindiscrimination_maintask,2023.2.3,59.99894403848335,2024-06-03 13h36.55.985148 -0400,
0,0,0,0,,,,,3,0,3,0,,,,,0,0,0,0,951.712111600209,,,,,,,,,,,,,0,active,,,,,,,,,,,,,,,,949.9813940001186,951.6957144001499,951.6960254001897,956.695634300122,956.6956417001784,956.7122165001929,964.6956647001207,964.6956647001207,967.6623063001316,967.6956155002117,967.6956155002117,967.6791166001931,3.42,5.38,342,538,8,1.2,0.75,pic-present,None,None,,,,,,,sub-039,47.5,44.3,48.2,COM3,2024-06-03_13h36.25.110,2024_RDpaindiscrimination_maintask,2023.2.3,59.99894403848335,2024-06-03 13h36.55.985148 -0400,
0,0,0,0,,,,,3,0,3,0,,,,,1,0,1,0,967.6956155002117,,,,,,,,,,,,,1,inactive,,,,,,,,,,,,,,,,,,967.6796204000711,972.6791873001494,972.6791950000916,972.6956627001055,980.6791705000214,980.6791705000214,983.6458663002122,983.6792519001756,983.6792519001756,983.6628139000386,3.82,4.98,382,498,8,1.2,0.75,pic-absent,1,n,1.9369900000747293,None,,,,,sub-039,47.5,44.3,48.2,COM3,2024-06-03_13h36.25.110,2024_RDpaindiscrimination_maintask,2023.2.3,59.99894403848335,2024-06-03 13h36.55.985148 -0400,
0,0,0,0,,,,,3,0,3,0,,,,,2,0,2,0,983.6792519001756,,,,,,,,,,,,,2,inactive,,,,,,,,,,,,,,,,,,983.663337700069,988.662670200225,988.6626775001641,988.6791983000003,996.6625983000267,996.6625983000267,999.6293295000214,999.6626285000239,999.6626285000239,999.6461504001636,4.56,4.24,455,424,8,1.2,0.75,pic-present,1,n,0.869721099967137,None,,,,,sub-039,47.5,44.3,48.2,COM3,2024-06-03_13h36.25.110,2024_RDpaindiscrimination_maintask,2023.2.3,59.99894403848335,2024-06-03 13h36.55.985148 -0400,
0,0,0,0,,,,,3,0,3,0,,,,,3,0,3,0,999.6626285000239,,,,,,,,,,,,,3,inactive,,,,,,,,,,,,,,,,,,999.6466025002301,1004.6462175000925,1004.6462246000301,1004.6626568001229,1012.6460791002028,1012.6460791002028,1015.6128416000865,1015.6461179000326,1015.6461179000326,1015.6296731000766,4.11,4.69,411,469,8,1.2,0.75,pic-absent,0,m,1.1619425001554191,None,,,,,sub-039,47.5,44.3,48.2,COM3,2024-06-03_13h36.25.110,2024_RDpaindiscrimination_maintask,2023.2.3,59.99894403848335,2024-06-03 13h36.55.985148 -0400,
1,0,1,0,0,0,0,0,,,,,,,,,,,,,1080.8468417001422,,,,1073.1471771001816,1077.9637838001363,1077.96379170008,1080.830518500181,1080.8308466000017,1085.8304587001912,1085.830466200132,1085.8469823000487,1097.830857400084,0,active,44.3,1097.8310701001901,1101.7150748001877,0.0,3.862,1097.8636787000578,,,,,,,,,,,,,,,,,,,,,,,,,,,,,,,,,,1015.6301004001871,1073.1470497001428,,,sub-039,47.5,44.3,48.2,COM3,2024-06-03_13h36.25.110,2024_RDpaindiscrimination_maintask,2023.2.3,59.99894403848335,2024-06-03 13h36.55.985148 -0400,
1,0,1,0,1,0,1,0,,,,,,,,,,,,,1101.7303914001677,,,,,,,,1101.7162599000148,1106.7139465000946,1106.7139537001494,1106.7305081000086,1118.7144149001688,1,active,44.3,1118.7145621001255,1124.6987879001535,1.5000000000000941,5.966,1118.7473150000442,,,,,,,,,,,,,,,,,,,,,,,,,,,,,,,,,,,,,,sub-039,47.5,44.3,48.2,COM3,2024-06-03_13h36.25.110,2024_RDpaindiscrimination_maintask,2023.2.3,59.99894403848335,2024-06-03 13h36.55.985148 -0400,
1,0,1,0,2,0,2,0,,,,,,,,,,,,,1124.7139793001115,,,,,,,,1124.699598700041,1129.697579700034,1129.697586600203,1129.7140323000494,1141.6980462002102,2,inactive,47.5,1141.6981922001578,1145.1652273000218,84.00000000000006,3.448,1141.7308962000534,,,,,,,,,,,,,,,,,,,,,,,,,,,,,,,,,,,,,,sub-039,47.5,44.3,48.2,COM3,2024-06-03_13h36.25.110,2024_RDpaindiscrimination_maintask,2023.2.3,59.99894403848335,2024-06-03 13h36.55.985148 -0400,
1,0,1,0,3,0,3,0,,,,,,,,,,,,,1145.1809339001775,,,,,,,,1145.1654768001754,1150.1644107000902,1150.1644172000233,1150.1809554002248,1162.1649321001023,3,active,44.3,1162.1650937001687,1168.1668813000433,5.5000000000000675,5.983,1162.1977833001874,,,,,,,,,,,,,,,,,,,,,,,,,,,,,,,,,,,,,,sub-039,47.5,44.3,48.2,COM3,2024-06-03_13h36.25.110,2024_RDpaindiscrimination_maintask,2023.2.3,59.99894403848335,2024-06-03 13h36.55.985148 -0400,
1,0,1,0,4,0,4,0,,,,,,,,,,,,,1168.1811042001937,,,,,,,,1168.1676822002046,1173.164714800194,1173.1647219001316,1173.1811595000327,1185.1650933001656,0,inactive,47.5,1185.1652397001162,1191.2001290000044,5.500000000000165,6.016,1185.1979787000455,,,,,,,,,,,,,,,,,,,,,,,,,,,,,,,,,,,,,,sub-039,47.5,44.3,48.2,COM3,2024-06-03_13h36.25.110,2024_RDpaindiscrimination_maintask,2023.2.3,59.99894403848335,2024-06-03 13h36.55.985148 -0400,
1,0,1,0,5,0,5,0,,,,,,,,,,,,,1191.2146988001186,,,,,,,,1191.200941100018,1196.198291100096,1196.1982979001477,1196.2147499001585,1208.1986800001469,1,inactive,47.5,1208.1988246000838,1212.399617300136,50.0,4.182,1208.2316083000042,,,,,,,,,,,,,,,,,,,,,,,,,,,,,,,,,,,,,,sub-039,47.5,44.3,48.2,COM3,2024-06-03_13h36.25.110,2024_RDpaindiscrimination_maintask,2023.2.3,59.99894403848335,2024-06-03 13h36.55.985148 -0400,
1,0,1,0,6,0,6,0,,,,,,,,,,,,,1212.4148902001325,,,,,,,,1212.4003828000277,1217.3984387000091,1217.3984458001796,1217.4149860001635,1229.3990193000063,2,active,44.3,1229.399179500062,1231.8503406001255,0.0,2.432,1229.4318469001446,,,,,,,,,,,,,,,,,,,,,,,,,,,,,,,,,,,,,,sub-039,47.5,44.3,48.2,COM3,2024-06-03_13h36.25.110,2024_RDpaindiscrimination_maintask,2023.2.3,59.99894403848335,2024-06-03 13h36.55.985148 -0400,
1,0,1,0,7,0,7,0,,,,,,,,,,,,,1231.8652092001867,,,,,,,,1231.8511629002169,1236.8487497000024,1236.8487567000557,1236.865175700048,1248.8491635001265,3,inactive,47.5,1248.8493180000223,1254.5002700001933,62.49999999999992,5.632,1248.8820513000246,,,,,,,,,,,,,,,,,,,,,,,,,,,,,,,,,,,,,,sub-039,47.5,44.3,48.2,COM3,2024-06-03_13h36.25.110,2024_RDpaindiscrimination_maintask,2023.2.3,59.99894403848335,2024-06-03 13h36.55.985148 -0400,
1,0,1,0,8,0,8,0,,,,,,,,,,,,,1254.5154525002,,,,,,,,1254.5010694002267,1259.498981300043,1259.4989876002073,1259.5154335000552,1271.499473700067,0,inactive,47.5,1271.4996217000298,1277.4686257001013,10.500000000000098,5.95,1271.5322892002296,,,,,,,,,,,,,,,,,,,,,,,,,,,,,,,,,,,,,,sub-039,47.5,44.3,48.2,COM3,2024-06-03_13h36.25.110,2024_RDpaindiscrimination_maintask,2023.2.3,59.99894403848335,2024-06-03 13h36.55.985148 -0400,
1,0,1,0,9,0,9,0,,,,,,,,,,,,,1277.4823852002155,,,,,,,,1277.469425600022,1282.465806600172,1282.465812700102,1282.4823715002276,1294.4663866001647,1,active,44.3,1294.4665354001336,1298.202099900227,10.0,3.717,1294.4991884001065,,,,,,,,,,,,,,,,,,,,,,,,,,,,,,,,,,,,,,sub-039,47.5,44.3,48.2,COM3,2024-06-03_13h36.25.110,2024_RDpaindiscrimination_maintask,2023.2.3,59.99894403848335,2024-06-03 13h36.55.985148 -0400,
1,0,1,0,10,0,10,0,,,,,,,,,,,,,1298.2159158000723,,,,,,,,1298.202833100222,1303.19953610003,1303.199544200208,1303.2159812001046,1315.1998725000303,2,inactive,47.5,1315.2000197002199,1320.8849014001898,78.5,5.666,1315.2327892000321,,,,,,,,,,,,,,,,,,,,,,,,,,,,,,,,,,,,,,sub-039,47.5,44.3,48.2,COM3,2024-06-03_13h36.25.110,2024_RDpaindiscrimination_maintask,2023.2.3,59.99894403848335,2024-06-03 13h36.55.985148 -0400,
1,0,1,0,11,0,11,0,,,,,,,,,,,,,1320.899521900108,,,,,,,,1320.8856693000998,1325.8830837002024,1325.88309080014,1325.899555500131,1337.8834943000693,3,active,44.3,1337.8836452001706,1340.8693267002236,10.0,2.879,1337.9996902002022,,,,,,,,,,,,,,,,,,,,,,,,,,,,,,,,,,,,,,sub-039,47.5,44.3,48.2,COM3,2024-06-03_13h36.25.110,2024_RDpaindiscrimination_maintask,2023.2.3,59.99894403848335,2024-06-03 13h36.55.985148 -0400,
1,0,1,0,12,0,12,0,,,,,,,,,,,,,1340.8831291000824,,,,,,,,1340.8701290001627,1345.8666134001687,1345.8666206002235,1345.8831575000659,1357.8670458002016,0,active,44.3,1357.8671912001446,1362.6696578001138,0.0,4.784,1357.8999293001834,,,,,,,,,,,,,,,,,,,,,,,,,,,,,,,,,,,,,,sub-039,47.5,44.3,48.2,COM3,2024-06-03_13h36.25.110,2024_RDpaindiscrimination_maintask,2023.2.3,59.99894403848335,2024-06-03 13h36.55.985148 -0400,
1,0,1,0,13,0,13,0,,,,,,,,,,,,,1362.6832538000308,,,,,,,,1362.670460600173,1367.6667879000306,1367.6667943000793,1367.6832240000367,1379.6672168001533,1,inactive,47.5,1379.667365200119,1385.601758300094,61.49999999999999,5.916,1379.7001374000683,,,,,,,,,,,,,,,,,,,,,,,,,,,,,,,,,,,,,,sub-039,47.5,44.3,48.2,COM3,2024-06-03_13h36.25.110,2024_RDpaindiscrimination_maintask,2023.2.3,59.99894403848335,2024-06-03 13h36.55.985148 -0400,
1,0,1,0,14,0,14,0,,,,,,,,,,,,,1385.6167991000693,,,,,,,,1385.602511800127,1390.6003070001025,1390.6003138001543,1390.616805800004,1402.6008650001604,2,active,44.3,1402.6010120001156,1407.7687618001364,0.0,5.149,1402.63371630013,,,,,,,,,,,,,,,,,,,,,,,,,,,,,,,,,,,,,,sub-039,47.5,44.3,48.2,COM3,2024-06-03_13h36.25.110,2024_RDpaindiscrimination_maintask,2023.2.3,59.99894403848335,2024-06-03 13h36.55.985148 -0400,
1,0,1,0,15,0,15,0,,,,,,,,,,,,,1407.7836563000455,,,,,,,,1407.7695102000143,1412.767217000015,1412.7672236000653,1412.7837445000187,1424.7676129001193,3,inactive,47.5,1424.7677608001977,1429.9356362000108,67.99999999999983,5.149,1424.8004709000234,,,,,,,,,,,,,,,,,,,,,,,,,,,,,,,,,,,,,,sub-039,47.5,44.3,48.2,COM3,2024-06-03_13h36.25.110,2024_RDpaindiscrimination_maintask,2023.2.3,59.99894403848335,2024-06-03 13h36.55.985148 -0400,
1,0,1,0,,,,,0,0,0,0,0,0,0,0,,,,,1453.1508049000986,,,,,,1450.7013860000297,1453.1345187001862,,,,,,0,active,47.5,1470.1347366000991,1474.3859815001488,2.5000000000000226,4.232,,1429.9361939001828,1429.9506290000863,1450.7010525001679,1453.1348098001909,1458.1343803000636,1458.1343875001185,1458.1508607000578,1470.1676604000386,1470.1347282000352,,,,,,,,,,,,,,,,,,,,,,,,,,,,,sub-039,47.5,44.3,48.2,COM3,2024-06-03_13h36.25.110,2024_RDpaindiscrimination_maintask,2023.2.3,59.99894403848335,2024-06-03 13h36.55.985148 -0400,
1,0,1,0,,,,,0,0,0,0,1,0,1,0,,,,,1474.4010384001303,,,,,,,,,,,,,1,inactive,47.5,1491.3850147000048,1494.1378813001793,20.0,2.734,,,,,1474.38675220008,1479.384585800115,1479.3845929000527,1479.401193200145,1491.4179216001648,1491.3850066000596,,,,,,,,,,,,,,,,,,,,,,,,,,,,,sub-039,47.5,44.3,48.2,COM3,2024-06-03_13h36.25.110,2024_RDpaindiscrimination_maintask,2023.2.3,59.99894403848335,2024-06-03 13h36.55.985148 -0400,
1,0,1,0,,,,,0,0,0,0,,,,,0,0,0,0,1495.7846349000465,,,,,,,,,,,,,2,inactive,,,,,,,,,,,,,,,,1494.1384011001792,1495.7682610000484,1495.7685641001444,1500.7681779002305,1500.7681855000556,1500.784686700208,1508.768194500124,1508.768194500124,1511.7348248001654,1511.7681352000218,1511.7681352000218,1511.7516514000017,4.63,4.17,463,417,8,1.2,0.75,pic-present,1,n,1.4878628000151366,None,,,,,sub-039,47.5,44.3,48.2,COM3,2024-06-03_13h36.25.110,2024_RDpaindiscrimination_maintask,2023.2.3,59.99894403848335,2024-06-03 13h36.55.985148 -0400,
1,0,1,0,,,,,0,0,0,0,,,,,1,0,1,0,1511.7681352000218,,,,,,,,,,,,,3,inactive,,,,,,,,,,,,,,,,,,1511.752181700198,1516.7516723000444,1516.7516796002164,1516.7682043001987,1524.7516147000715,1524.7516147000715,1527.718310700031,1527.7517067000736,1527.7517067000736,1527.7351561000105,4.29,4.51,429,451,8,1.2,0.75,pic-absent,0,m,1.3085640999488533,None,,,,,sub-039,47.5,44.3,48.2,COM3,2024-06-03_13h36.25.110,2024_RDpaindiscrimination_maintask,2023.2.3,59.99894403848335,2024-06-03 13h36.55.985148 -0400,
1,0,1,0,,,,,0,0,0,0,,,,,2,0,2,0,1527.7517067000736,,,,,,,,,,,,,0,active,,,,,,,,,,,,,,,,,,1527.7356591001153,1532.7352141002193,1532.7352215000428,1532.7517021000385,1540.7351232001092,1540.7351232001092,1543.7018978002016,1543.7352347001433,1543.7352347001433,1543.7187543001492,3.45,5.35,345,535,8,1.2,0.75,pic-absent,0,m,0.7523120001424104,None,,,,,sub-039,47.5,44.3,48.2,COM3,2024-06-03_13h36.25.110,2024_RDpaindiscrimination_maintask,2023.2.3,59.99894403848335,2024-06-03 13h36.55.985148 -0400,
1,0,1,0,,,,,0,0,0,0,,,,,3,0,3,0,1543.7352347001433,,,,,,,,,,,,,1,inactive,,,,,,,,,,,,,,,,,,1543.719276000047,1548.7187126001809,1548.71871990012,1548.7351423001382,1556.7185903000645,1556.7185903000645,1559.6852799002081,1559.7186217000708,1559.7186217000708,1559.7021956001408,4.15,4.65,415,465,8,1.2,0.75,pic-present,1,n,0.8968883999623358,None,,,,,sub-039,47.5,44.3,48.2,COM3,2024-06-03_13h36.25.110,2024_RDpaindiscrimination_maintask,2023.2.3,59.99894403848335,2024-06-03 13h36.55.985148 -0400,
1,0,1,0,,,,,1,0,1,0,0,0,0,0,,,,,1561.335366500076,,,,,,1559.7027133000083,1561.319008700084,,,,,,2,inactive,47.5,1578.3191501002293,1582.7208591001108,64.99999999999984,4.383,,,,,1561.3193021002226,1566.31884920015,1566.3188566002063,1566.3353595000226,1578.3521464001387,1578.3191414000466,,,,,,,,,,,,,,,,,,,,,,,,,,,,,sub-039,47.5,44.3,48.2,COM3,2024-06-03_13h36.25.110,2024_RDpaindiscrimination_maintask,2023.2.3,59.99894403848335,2024-06-03 13h36.55.985148 -0400,
1,0,1,0,,,,,1,0,1,0,1,0,1,0,,,,,1582.7355306001846,,,,,,,,,,,,,3,active,47.5,1599.719592800131,1603.2043898000848,62.999999999999915,3.466,,,,,1582.7215876001865,1587.719082100084,1587.7190889001358,1587.735588400159,1599.7523865001276,1599.7195847001858,,,,,,,,,,,,,,,,,,,,,,,,,,,,,sub-039,47.5,44.3,48.2,COM3,2024-06-03_13h36.25.110,2024_RDpaindiscrimination_maintask,2023.2.3,59.99894403848335,2024-06-03 13h36.55.985148 -0400,
1,0,1,0,,,,,1,0,1,0,,,,,0,0,0,0,1604.6857732001226,,,,,,,,,,,,,0,inactive,,,,,,,,,,,,,,,,1603.2049484001473,1604.669434600044,1604.669737300137,1609.6693752000574,1609.6693821002264,1609.6858632001095,1617.6692813001573,1617.6692813001573,1620.6359805001412,1620.6693141001742,1620.6693141001742,1620.652874500025,3.86,4.94,386,494,8,1.2,0.75,pic-absent,0,m,1.2263533999212086,None,,,,,sub-039,47.5,44.3,48.2,COM3,2024-06-03_13h36.25.110,2024_RDpaindiscrimination_maintask,2023.2.3,59.99894403848335,2024-06-03 13h36.55.985148 -0400,
1,0,1,0,,,,,1,0,1,0,,,,,1,0,1,0,1620.6693141001742,,,,,,,,,,,,,1,active,,,,,,,,,,,,,,,,,,1620.6534342002124,1625.6528629001696,1625.6528704001103,1625.6693692000117,1633.6528274000157,1633.6528274000157,1636.6194907000754,1636.6528595001437,1636.6528595001437,1636.6364287000615,4.62,4.18,462,418,8,1.2,0.75,pic-absent,0,m,1.1868471999187022,None,,,,,sub-039,47.5,44.3,48.2,COM3,2024-06-03_13h36.25.110,2024_RDpaindiscrimination_maintask,2023.2.3,59.99894403848335,2024-06-03 13h36.55.985148 -0400,
1,0,1,0,,,,,1,0,1,0,,,,,2,0,2,0,1636.6528595001437,,,,,,,,,,,,,2,inactive,,,,,,,,,,,,,,,,,,1636.6369160001632,1641.6364218001254,1641.6364288001787,1641.6528355001938,1649.6362887001596,1649.6362887001596,1652.603061400121,1652.6364291000646,1652.6364291000646,1652.6199033001903,4.57,4.23,457,423,8,1.2,0.75,pic-present,1,n,1.1956994999200106,None,,,,,sub-039,47.5,44.3,48.2,COM3,2024-06-03_13h36.25.110,2024_RDpaindiscrimination_maintask,2023.2.3,59.99894403848335,2024-06-03 13h36.55.985148 -0400,
1,0,1,0,,,,,1,0,1,0,,,,,3,0,3,0,1652.6364291000646,,,,,,,,,,,,,3,active,,,,,,,,,,,,,,,,,,1652.6203991000075,1657.6198881000746,1657.6198953001294,1657.6364233000204,1665.6197941000573,1665.6197941000573,1668.5865116000641,1668.6198301000986,1668.6198301000986,1668.6033372001257,4.22,4.58,422,458,8,1.2,0.75,pic-present,1,n,1.627369600115344,None,,,,,sub-039,47.5,44.3,48.2,COM3,2024-06-03_13h36.25.110,2024_RDpaindiscrimination_maintask,2023.2.3,59.99894403848335,2024-06-03 13h36.55.985148 -0400,
1,0,1,0,,,,,2,0,2,0,0,0,0,0,,,,,1669.5531778000295,,,,,,1668.6038353000768,1669.5368033000268,,,,,,0,inactive,47.5,1686.5370707002003,1691.5231202000286,2.0000000000000586,4.967,,,,,1669.5371101000346,1674.536719800206,1674.536727100145,1674.5532487002201,1686.5700953002088,1686.5370611001272,,,,,,,,,,,,,,,,,,,,,,,,,,,,,sub-039,47.5,44.3,48.2,COM3,2024-06-03_13h36.25.110,2024_RDpaindiscrimination_maintask,2023.2.3,59.99894403848335,2024-06-03 13h36.55.985148 -0400,
1,0,1,0,,,,,2,0,2,0,1,0,1,0,,,,,1691.5367514002137,,,,,,,,,,,,,1,active,47.5,1708.5207255000714,1714.4063128000125,50.99999999999996,5.867,,,,,1691.5239270001184,1696.5202466000337,1696.5202535002027,1696.5367816002108,1708.5536566001829,1708.5207174001262,,,,,,,,,,,,,,,,,,,,,,,,,,,,,sub-039,47.5,44.3,48.2,COM3,2024-06-03_13h36.25.110,2024_RDpaindiscrimination_maintask,2023.2.3,59.99894403848335,2024-06-03 13h36.55.985148 -0400,
1,0,1,0,,,,,2,0,2,0,,,,,0,0,0,0,1716.4704776001163,,,,,,,,,,,,,2,active,,,,,,,,,,,,,,,,1714.4068721001968,1716.4540172000416,1716.4543552000541,1721.4539328000974,1721.453939900035,1721.470441600075,1729.4538442001212,1729.4538442001212,1732.4205490001477,1732.4538830001839,1732.4538830001839,1732.4373587002046,4.03,4.77,403,476,8,1.2,0.75,pic-absent,0,m,1.4374869000166655,None,,,,,sub-039,47.5,44.3,48.2,COM3,2024-06-03_13h36.25.110,2024_RDpaindiscrimination_maintask,2023.2.3,59.99894403848335,2024-06-03 13h36.55.985148 -0400,
1,0,1,0,,,,,2,0,2,0,,,,,1,0,1,0,1732.4538830001839,,,,,,,,,,,,,3,inactive,,,,,,,,,,,,,,,,,,1732.4378696000203,1737.4374674002174,1737.4374746000394,1737.4539038001094,1745.4373731000815,1745.4373731000815,1748.4040391000453,1748.4373605002183,1748.4373605002183,1748.4208729001693,4.36,4.44,436,444,8,1.2,0.75,pic-present,1,n,1.4939501001499593,None,,,,,sub-039,47.5,44.3,48.2,COM3,2024-06-03_13h36.25.110,2024_RDpaindiscrimination_maintask,2023.2.3,59.99894403848335,2024-06-03 13h36.55.985148 -0400,
1,0,1,0,,,,,2,0,2,0,,,,,2,0,2,0,1748.4373605002183,,,,,,,,,,,,,0,active,,,,,,,,,,,,,,,,,,1748.4213494001888,1753.4209484001622,1753.4209547000937,1753.4374621000607,1761.4208261000458,1761.4208261000458,1764.3875283000525,1764.4208603000734,1764.4208603000734,1764.4044608001132,3.82,4.98,382,498,8,1.2,0.75,pic-present,0,m,1.1702238998841494,None,,,,,sub-039,47.5,44.3,48.2,COM3,2024-06-03_13h36.25.110,2024_RDpaindiscrimination_maintask,2023.2.3,59.99894403848335,2024-06-03 13h36.55.985148 -0400,
1,0,1,0,,,,,2,0,2,0,,,,,3,0,3,0,1764.4208603000734,,,,,,,,,,,,,1,inactive,,,,,,,,,,,,,,,,,,1764.4049599000718,1769.4044103000779,1769.4044179001357,1769.4209134001285,1777.4044087000657,1777.4044087000657,1780.3710276000202,1780.4043994001113,1780.4043994001113,1780.3878818000667,3.38,5.42,338,542,8,1.2,0.75,pic-absent,0,m,1.323342900024727,None,,,,,sub-039,47.5,44.3,48.2,COM3,2024-06-03_13h36.25.110,2024_RDpaindiscrimination_maintask,2023.2.3,59.99894403848335,2024-06-03 13h36.55.985148 -0400,
1,0,1,0,,,,,3,0,3,0,0,0,0,0,,,,,1780.8377674000803,,,,,,1780.3883608002216,1780.8212966001593,,,,,,2,active,47.5,1797.8217135001905,1803.956977300113,77.00000000000001,6.117,,,,,1780.8216017000377,1785.8212550000753,1785.8212619000115,1785.8377855001017,1797.854661700083,1797.8217048000079,,,,,,,,,,,,,,,,,,,,,,,,,,,,,sub-039,47.5,44.3,48.2,COM3,2024-06-03_13h36.25.110,2024_RDpaindiscrimination_maintask,2023.2.3,59.99894403848335,2024-06-03 13h36.55.985148 -0400,
1,0,1,0,,,,,3,0,3,0,1,0,1,0,,,,,1803.9713750001974,,,,,,,,,,,,,3,inactive,47.5,1820.9553234002087,1827.840000900207,68.49999999999993,6.866,,,,,1803.9577454000246,1808.9549714000896,1808.9549782001413,1808.971390100196,1820.9882305001374,1820.9553152001463,,,,,,,,,,,,,,,,,,,,,,,,,,,,,sub-039,47.5,44.3,48.2,COM3,2024-06-03_13h36.25.110,2024_RDpaindiscrimination_maintask,2023.2.3,59.99894403848335,2024-06-03 13h36.55.985148 -0400,
1,0,1,0,,,,,3,0,3,0,,,,,0,0,0,0,1828.3215207001194,,,,,,,,,,,,,0,active,,,,,,,,,,,,,,,,1827.840573700145,1828.3051369001623,1828.305436400231,1833.3050642001908,1833.3050713001285,1833.3215723000467,1841.3049882000778,1841.3049882000778,1844.2718241000548,1844.305150500033,1844.305150500033,1844.2886708001606,4.04,4.76,404,476,8,1.2,0.75,pic-present,1,n,1.2903487000148743,None,,,,,sub-039,47.5,44.3,48.2,COM3,2024-06-03_13h36.25.110,2024_RDpaindiscrimination_maintask,2023.2.3,59.99894403848335,2024-06-03 13h36.55.985148 -0400,
1,0,1,0,,,,,3,0,3,0,,,,,1,0,1,0,1844.305150500033,,,,,,,,,,,,,1,active,,,,,,,,,,,,,,,,,,1844.2891819002107,1849.2885562002193,1849.2885676000733,1849.3051412000787,1857.288491500076,1857.288491500076,1860.2552112000994,1860.2885306000244,1860.2885306000244,1860.2720336001366,3.87,4.93,387,493,8,1.2,0.75,pic-present,1,n,1.207314900122583,None,,,,,sub-039,47.5,44.3,48.2,COM3,2024-06-03_13h36.25.110,2024_RDpaindiscrimination_maintask,2023.2.3,59.99894403848335,2024-06-03 13h36.55.985148 -0400,
1,0,1,0,,,,,3,0,3,0,,,,,2,0,2,0,1860.2885306000244,,,,,,,,,,,,,2,inactive,,,,,,,,,,,,,,,,,,1860.2725136000663,1865.2721152000595,1865.2721233000048,1865.2886376001406,1873.2720964001492,1873.2720964001492,1876.238734500017,1876.272075000219,1876.272075000219,1876.2556334000546,4.62,4.18,462,418,8,1.2,0.75,pic-absent,1,n,1.451288799988106,None,,,,,sub-039,47.5,44.3,48.2,COM3,2024-06-03_13h36.25.110,2024_RDpaindiscrimination_maintask,2023.2.3,59.99894403848335,2024-06-03 13h36.55.985148 -0400,
1,0,1,0,,,,,3,0,3,0,,,,,3,0,3,0,1876.272075000219,,,,,,,,,,,,,3,active,,,,,,,,,,,,,,,,,,1876.2561254000757,1881.255619800184,1881.2556281001307,1881.2720844000578,1889.2555474000983,1889.2555474000983,1892.2223423002288,1892.2555693001486,1892.2555693001486,1892.2390901001636,3.68,5.12,368,512,8,1.2,0.75,pic-absent,0,m,1.415299299871549,None,,,,,sub-039,47.5,44.3,48.2,COM3,2024-06-03_13h36.25.110,2024_RDpaindiscrimination_maintask,2023.2.3,59.99894403848335,2024-06-03 13h36.55.985148 -0400,
,,,,,,,,,,,,,,,,,,,,,,,,,,,,,,,,,,,,,,,,,,,,,,,,,,,,,,,,,,,,,,,,,,,,,,,,,,1892.2395415001083,1895.3230773000978,1895.323099900037,1905.3225674000569,,,,,,,,,,,
