trials.thisRepN,trials.thisTrialN,trials.thisN,trials.thisIndex,loop_test.thisRepN,loop_test.thisTrialN,loop_test.thisN,loop_test.thisIndex,loop_eval_discri.thisRepN,loop_eval_discri.thisTrialN,loop_eval_discri.thisN,loop_eval_discri.thisIndex,loop_eval.thisRepN,loop_eval.thisTrialN,loop_eval.thisN,loop_eval.thisIndex,loop_discri.thisRepN,loop_discri.thisTrialN,loop_discri.thisN,loop_discri.thisIndex,thisRow.t,notes,Set_up.started,Set_up.stopped,electrode_check.started,electrode_check.stopped,instructions_eval.started,instructions_eval.stopped,pause_5_test.started,pause_5_test.stopped,Phase_Test.started,thermode_locali.started,thermode_locali.stopped,Phase_Test.stopped,loca_thermode,condition,temp_trial_sent,eval_douleur.started,eval_douleur.stopped,ratingScale.response,ratingScale.rt,Fin_test.started,text.started,Fin_test.stopped,pause_5_EVA.started,pause_5_EVA.stopped,tâche_EVA.started,thermode_locali_EVA.started,thermode_locali_EVA.stopped,tâche_EVA.stopped,instructions_discrim.started,instructions_discrim.stopped,pause_5_pic.started,pause_5_pic.stopped,tâche_PIC.started,thermode_locali_pic.started,percu_or.started,responser.started,percu_or.stopped,responser.stopped,thermode_locali_pic.stopped,tâche_PIC.stopped,dur_plateau1,dur_plateau2,dur_plateau1_sent,dur_plateau2_sent,start_plateau_2_resp,dur_pic,dur_rise,pic_presence,pic_response,discrimin_resp.keys,discrimin_resp.rt,discrimin_resp.duration,break_entre_bloc.started,break_entre_bloc.stopped,merci.started,merci.stopped,participant,temp_flat,temp_active,temp_pic_set,com_thermode,date,expName,psychopyVersion,frameRate,expStart,
0,0,0,0,0,0,0,0,,,,,,,,,,,,,157.48185700000067,,0.011638699999821256,150.54930590000004,150.55006669999966,154.23270840000077,154.2327232000007,157.46573340000032,157.46635529999912,162.46585009999944,162.46586209999987,162.4819549999993,172.56556699999965,172.46657140000025,0,active,43.1,172.4665853000006,176.4185895999999,12.000000000000073,3.868,,,,,,,,,,,,,,,,,,,,,,,,,,,,,,,,,,,,,,sub-001,44.7,43.1,46.3,COM3,2024-01-23_13h27.13.746,2024_RDpaindiscrimination_maintask,2023.2.3,59.98825429984729,2024-01-23 13h27.59.975705 -0500,
0,0,0,0,1,0,1,0,,,,,,,,,,,,,176.43233970000074,,,,,,,,176.41928700000062,181.41625229999954,181.41626410000026,181.43244290000075,191.49931450000076,191.41699139999946,1,inactive,44.7,191.4170051000001,194.1861771999993,54.50000000000009,2.699,,,,,,,,,,,,,,,,,,,,,,,,,,,,,,,,,,,,,,sub-001,44.7,43.1,46.3,COM3,2024-01-23_13h27.13.746,2024_RDpaindiscrimination_maintask,2023.2.3,59.98825429984729,2024-01-23 13h27.59.975705 -0500,
0,0,0,0,2,0,2,0,,,,,,,,,,,,,194.21630650000043,,,,,,,,194.18793879999976,199.1995681999997,199.1995793999995,199.2161816000007,,209.19982999999957,2,inactive,44.7,209.1998442999993,212.21786090000023,77.9999999999998,2.947,,,,,,,,,,,,,,,,,,,,,,,,,,,,,,,,,,,,,,sub-001,44.7,43.1,46.3,COM3,2024-01-23_13h27.13.746,2024_RDpaindiscrimination_maintask,2023.2.3,59.98825429984729,2024-01-23 13h27.59.975705 -0500,
0,0,0,0,3,0,3,0,,,,,,,,,,,,,212.23317619999943,,,,,,,,212.21844039999996,217.21712710000065,217.21713909999926,217.2332946000006,227.30019979999997,227.21784549999938,3,active,43.1,227.21785920000002,229.25389739999991,12.999999999999993,1.965,,,,,,,,,,,,,,,,,,,,,,,,,,,,,,,,,,,,,,sub-001,44.7,43.1,46.3,COM3,2024-01-23_13h27.13.746,2024_RDpaindiscrimination_maintask,2023.2.3,59.98825429984729,2024-01-23 13h27.59.975705 -0500,
0,0,0,0,4,0,4,0,,,,,,,,,,,,,229.28369469999961,,,,,,,,229.25564490000033,234.26708750000034,234.26709909999954,234.28369999999995,,244.2673293000007,0,inactive,44.7,244.2673433,246.06908889999977,62.999999999999915,1.731,,,,,,,,,,,,,,,,,,,,,,,,,,,,,,,,,,,,,,sub-001,44.7,43.1,46.3,COM3,2024-01-23_13h27.13.746,2024_RDpaindiscrimination_maintask,2023.2.3,59.98825429984729,2024-01-23 13h27.59.975705 -0500,
0,0,0,0,5,0,5,0,,,,,,,,,,,,,246.08410279999953,,,,,,,,246.07029519999924,251.06791300000077,251.06792479999967,251.08410439999898,261.2343438000007,261.0686838999991,1,active,43.1,261.0686972000003,263.07002570000077,20.000000000000036,1.851,,,,,,,,,,,,,,,,,,,,,,,,,,,,,,,,,,,,,,sub-001,44.7,43.1,46.3,COM3,2024-01-23_13h27.13.746,2024_RDpaindiscrimination_maintask,2023.2.3,59.98825429984729,2024-01-23 13h27.59.975705 -0500,
0,0,0,0,6,0,6,0,,,,,,,,,,,,,263.08438810000007,,,,,,,,263.0706140000002,268.06858739999916,268.06859950000035,268.08448920000046,278.1513911000002,278.0690627999993,2,inactive,44.7,278.06907669999964,281.436772699999,64.99999999999987,3.297,,,,,,,,,,,,,,,,,,,,,,,,,,,,,,,,,,,,,,sub-001,44.7,43.1,46.3,COM3,2024-01-23_13h27.13.746,2024_RDpaindiscrimination_maintask,2023.2.3,59.98825429984729,2024-01-23 13h27.59.975705 -0500,
0,0,0,0,7,0,7,0,,,,,,,,,,,,,281.45158400000037,,,,,,,,281.4378856000003,286.4354308000002,286.43544289999954,286.4515897000001,296.51849559999937,296.4361349999999,3,active,43.1,296.43614909999997,299.7543382999993,37.50000000000008,3.248,,,,,,,,,,,,,,,,,,,,,,,,,,,,,,,,,,,,,,sub-001,44.7,43.1,46.3,COM3,2024-01-23_13h27.13.746,2024_RDpaindiscrimination_maintask,2023.2.3,59.98825429984729,2024-01-23 13h27.59.975705 -0500,
0,0,0,0,8,0,8,0,,,,,,,,,,,,,299.768591,,,,,,,,299.75493710000046,304.75255710000056,304.75256959999933,304.7687234999994,314.8356144999998,314.75325969999903,0,inactive,44.7,314.75327429999925,317.9384795999995,76.99999999999999,3.115,,,,,,,,,,,,,,,,,,,,,,,,,,,,,,,,,,,,,,sub-001,44.7,43.1,46.3,COM3,2024-01-23_13h27.13.746,2024_RDpaindiscrimination_maintask,2023.2.3,59.98825429984729,2024-01-23 13h27.59.975705 -0500,
0,0,0,0,9,0,9,0,,,,,,,,,,,,,317.96915249999984,,,,,,,,317.9401839000002,322.95254439999917,322.9525558000005,322.96912259999954,,332.9527545000001,1,active,43.1,332.9527686000001,335.35657139999967,39.49999999999994,2.333,,,,,,,,,,,,,,,,,,,,,,,,,,,,,,,,,,,,,,sub-001,44.7,43.1,46.3,COM3,2024-01-23_13h27.13.746,2024_RDpaindiscrimination_maintask,2023.2.3,59.98825429984729,2024-01-23 13h27.59.975705 -0500,
0,0,0,0,10,0,10,0,,,,,,,,,,,,,335.3861347999991,,,,,,,,335.35832110000047,340.36962610000046,340.3696373999992,340.38622439999926,,350.3698103000006,2,active,43.1,350.3698242999999,352.58884709999984,27.99999999999997,2.149,,,,,,,,,,,,,,,,,,,,,,,,,,,,,,,,,,,,,,sub-001,44.7,43.1,46.3,COM3,2024-01-23_13h27.13.746,2024_RDpaindiscrimination_maintask,2023.2.3,59.98825429984729,2024-01-23 13h27.59.975705 -0500,
0,0,0,0,11,0,11,0,,,,,,,,,,,,,352.6199777999991,,,,,,,,352.5906116999995,357.60334429999966,357.6033556000002,357.61992439999995,,367.60359229999995,3,inactive,44.7,367.6036060999995,369.7894852999998,62.999999999999915,2.116,,,,,,,,,,,,,,,,,,,,,,,,,,,,,,,,,,,,,,sub-001,44.7,43.1,46.3,COM3,2024-01-23_13h27.13.746,2024_RDpaindiscrimination_maintask,2023.2.3,59.98825429984729,2024-01-23 13h27.59.975705 -0500,
0,0,0,0,12,0,12,0,,,,,,,,,,,,,369.8202373999993,,,,,,,,369.79121680000026,374.80377000000044,374.80378139999993,374.8203553000003,,384.8042562999999,0,active,43.1,384.804291299999,387.17361849999907,16.500000000000007,2.288,,,,,,,,,,,,,,,,,,,,,,,,,,,,,,,,,,,,,,sub-001,44.7,43.1,46.3,COM3,2024-01-23_13h27.13.746,2024_RDpaindiscrimination_maintask,2023.2.3,59.98825429984729,2024-01-23 13h27.59.975705 -0500,
0,0,0,0,13,0,13,0,,,,,,,,,,,,,387.18731130000015,,,,,,,,387.17420420000053,392.1713018999999,392.1713141,392.1874143999994,402.2543461000005,402.1719286000007,1,inactive,44.7,402.17194240000026,403.88989709999987,85.49999999999994,1.647,,,,,,,,,,,,,,,,,,,,,,,,,,,,,,,,,,,,,,sub-001,44.7,43.1,46.3,COM3,2024-01-23_13h27.13.746,2024_RDpaindiscrimination_maintask,2023.2.3,59.98825429984729,2024-01-23 13h27.59.975705 -0500,
0,0,0,0,14,0,14,0,,,,,,,,,,,,,403.9045122000007,,,,,,,,403.8909834999995,408.88836269999956,408.8883750999994,408.9044969000006,418.9714254999999,418.8890874000008,2,active,43.1,418.8891008999999,421.1581306999997,42.49999999999993,2.199,,,,,,,,,,,,,,,,,,,,,,,,,,,,,,,,,,,,,,sub-001,44.7,43.1,46.3,COM3,2024-01-23_13h27.13.746,2024_RDpaindiscrimination_maintask,2023.2.3,59.98825429984729,2024-01-23 13h27.59.975705 -0500,
0,0,0,0,15,0,15,0,,,,,,,,,,,,,421.1882048000007,,,,,,,,421.1598592999999,426.1716615000005,426.17167250000057,426.1882394999993,,436.17184989999987,3,inactive,44.7,436.17186389999915,437.8746988999992,76.00000000000001,1.632,,,,,,,,,,,,,,,,,,,,,,,,,,,,,,,,,,,,,,sub-001,44.7,43.1,46.3,COM3,2024-01-23_13h27.13.746,2024_RDpaindiscrimination_maintask,2023.2.3,59.98825429984729,2024-01-23 13h27.59.975705 -0500,
0,0,0,0,,,,,0,0,0,0,0,0,0,0,,,,,460.55573919999915,,,,,,450.7905475000007,460.5399801000003,,,,,,,0,active,,475.5404605999993,478.84198859999924,40.50000000000011,3.23,437.87543430000005,437.88863859999947,450.789869799999,460.540594099999,465.5396703999995,465.5396832000006,465.5558567999997,475.6227665000006,475.54044780000004,,,,,,,,,,,,,,,,,,,,,,,,,,,,,sub-001,44.7,43.1,46.3,COM3,2024-01-23_13h27.13.746,2024_RDpaindiscrimination_maintask,2023.2.3,59.98825429984729,2024-01-23 13h27.59.975705 -0500,
0,0,0,0,,,,,0,0,0,0,1,0,1,0,,,,,478.8561721999995,,,,,,,,,,,,,,1,inactive,,493.8408586000005,497.1088385000003,62.999999999999986,3.198,,,,478.8425353999992,483.84010639999906,483.8401188000007,483.85629229999904,493.9231884000001,493.84084729999995,,,,,,,,,,,,,,,,,,,,,,,,,,,,,sub-001,44.7,43.1,46.3,COM3,2024-01-23_13h27.13.746,2024_RDpaindiscrimination_maintask,2023.2.3,59.98825429984729,2024-01-23 13h27.59.975705 -0500,
0,0,0,0,,,,,0,0,0,0,,,,,0,0,0,0,502.02337219999936,,,,,,,,,,,,,,2,inactive,,,,,,,,,,,,,,,497.10940370000026,502.0076176999992,502.00825930000065,507.0073059999995,507.0073190000003,507.04017770000064,514.5070047999998,514.5070047999998,517.5070713000005,517.5070713000005,517.9904182999999,517.9742348,3.76,4.29,451,429,7.5,1.2,0.75,pic-absent,0,m,0.7382163000002038,None,,,,,sub-001,44.7,43.1,46.3,COM3,2024-01-23_13h27.13.746,2024_RDpaindiscrimination_maintask,2023.2.3,59.98825429984729,2024-01-23 13h27.59.975705 -0500,
0,0,0,0,,,,,0,0,0,0,,,,,1,0,1,0,517.9904182999999,,,,,,,,,,,,,,3,active,,,,,,,,,,,,,,,,,517.9761995999997,522.9743854999997,522.9743982,522.9905460999998,530.4907115000005,530.4907115000005,533.4907803000006,533.4907803000006,533.9407945000003,533.9246189000005,3.8,4.25,455,425,7.5,1.2,0.75,pic-absent,0,m,1.1663553999987926,None,,,,,sub-001,44.7,43.1,46.3,COM3,2024-01-23_13h27.13.746,2024_RDpaindiscrimination_maintask,2023.2.3,59.98825429984729,2024-01-23 13h27.59.975705 -0500,
0,0,0,0,,,,,0,0,0,0,,,,,2,0,2,0,533.9407945000003,,,,,,,,,,,,,,0,inactive,,,,,,,,,,,,,,,,,533.9261630000001,538.9247931999998,538.9248059000001,538.9410630000002,546.4410879999996,546.4410879999996,549.4411818000008,549.4411818000008,549.8911755999998,549.8750287000003,3.53,4.52,428,451,7.5,1.2,0.75,pic-present,1,n,0.5479959000003873,None,,,,,sub-001,44.7,43.1,46.3,COM3,2024-01-23_13h27.13.746,2024_RDpaindiscrimination_maintask,2023.2.3,59.98825429984729,2024-01-23 13h27.59.975705 -0500,
0,0,0,0,,,,,0,0,0,0,,,,,3,0,3,0,549.8911755999998,,,,,,,,,,,,,,1,active,,,,,,,,,,,,,,,,,549.8765686000006,554.8751159000003,554.8751293000005,554.8912896000002,562.3914681999995,562.3914681999995,565.3915214999997,565.3915214999997,565.8415527999987,565.8253523000003,3.32,4.73,407,473,7.5,1.2,0.75,pic-absent,0,m,1.0086655000013707,None,,,,,sub-001,44.7,43.1,46.3,COM3,2024-01-23_13h27.13.746,2024_RDpaindiscrimination_maintask,2023.2.3,59.98825429984729,2024-01-23 13h27.59.975705 -0500,
0,0,0,0,,,,,1,0,1,0,0,0,0,0,,,,,569.7416254,,,,,,565.8269584999998,569.7260535000005,,,,,,,2,inactive,,584.7263293999986,586.6951968000012,63.50000000000006,1.899,,,,569.7266782999995,574.7257040999993,574.7257173999988,574.7418173999995,584.8086920000005,584.7263183000014,,,,,,,,,,,,,,,,,,,,,,,,,,,,,sub-001,44.7,43.1,46.3,COM3,2024-01-23_13h27.13.746,2024_RDpaindiscrimination_maintask,2023.2.3,59.98825429984729,2024-01-23 13h27.59.975705 -0500,
0,0,0,0,,,,,1,0,1,0,1,0,1,0,,,,,586.708715499999,,,,,,,,,,,,,,3,active,,601.6934190000011,605.3104355000014,44.50000000000009,3.546,,,,586.6957397999995,591.6927339999984,591.6927463999982,591.7089647000012,601.7757624999995,601.6934071000014,,,,,,,,,,,,,,,,,,,,,,,,,,,,,sub-001,44.7,43.1,46.3,COM3,2024-01-23_13h27.13.746,2024_RDpaindiscrimination_maintask,2023.2.3,59.98825429984729,2024-01-23 13h27.59.975705 -0500,
0,0,0,0,,,,,1,0,1,0,,,,,0,0,0,0,608.0425698999989,,,,,,,,,,,,,,0,active,,,,,,,,,,,,,,,605.3107752999986,608.0267951000005,608.0274430000009,613.0265874999986,613.0266008999988,613.0426871,620.5261979000006,620.5261979000006,623.5262538000006,623.5262538000006,623.9929259,623.9767741000014,3.73,4.32,448,432,7.5,1.2,0.75,pic-present,1,n,1.1342755999976362,None,,,,,sub-001,44.7,43.1,46.3,COM3,2024-01-23_13h27.13.746,2024_RDpaindiscrimination_maintask,2023.2.3,59.98825429984729,2024-01-23 13h27.59.975705 -0500,
0,0,0,0,,,,,1,0,1,0,,,,,1,0,1,0,623.9929259,,,,,,,,,,,,,,1,inactive,,,,,,,,,,,,,,,,,623.9784896000001,628.976878200001,628.9768915000004,628.9930704999988,636.4932303000005,636.4932303000005,639.493298899999,639.493298899999,639.9433107999994,639.927130099999,3.86,4.19,461,419,7.5,1.2,0.75,pic-absent,0,m,1.0634221000000252,None,,,,,sub-001,44.7,43.1,46.3,COM3,2024-01-23_13h27.13.746,2024_RDpaindiscrimination_maintask,2023.2.3,59.98825429984729,2024-01-23 13h27.59.975705 -0500,
0,0,0,0,,,,,1,0,1,0,,,,,2,0,2,0,639.9433107999994,,,,,,,,,,,,,,2,active,,,,,,,,,,,,,,,,,639.9286955000007,644.9272594999984,644.9272723999984,644.9434482999986,652.4436087999984,652.4436087999984,655.4436923999983,655.4436923999983,655.8936653000001,655.8775775999984,4.14,3.91,488,391,7.5,1.2,0.75,pic-present,1,n,0.5843477999987954,None,,,,,sub-001,44.7,43.1,46.3,COM3,2024-01-23_13h27.13.746,2024_RDpaindiscrimination_maintask,2023.2.3,59.98825429984729,2024-01-23 13h27.59.975705 -0500,
0,0,0,0,,,,,1,0,1,0,,,,,3,0,3,0,655.8936653000001,,,,,,,,,,,,,,3,inactive,,,,,,,,,,,,,,,,,655.8791337999992,660.8777286999994,660.8777419999988,660.8938279999984,668.3939822000011,668.3939822000011,671.3940609000001,671.3940609000001,671.8440624000013,671.8280082000001,3.57,4.48,432,448,7.5,1.2,0.75,pic-absent,0,m,1.094222499999887,None,,,,,sub-001,44.7,43.1,46.3,COM3,2024-01-23_13h27.13.746,2024_RDpaindiscrimination_maintask,2023.2.3,59.98825429984729,2024-01-23 13h27.59.975705 -0500,
0,0,0,0,,,,,2,0,2,0,0,0,0,0,,,,,675.1941620999987,,,,,,671.8295874000014,675.1786608999992,,,,,,,0,inactive,,690.1788259000004,692.4293922000015,59.99999999999989,2.18,,,,675.1793013000006,680.1781396999995,680.1781524000016,680.1942618000012,690.2611917999984,690.178814500001,,,,,,,,,,,,,,,,,,,,,,,,,,,,,sub-001,44.7,43.1,46.3,COM3,2024-01-23_13h27.13.746,2024_RDpaindiscrimination_maintask,2023.2.3,59.98825429984729,2024-01-23 13h27.59.975705 -0500,
0,0,0,0,,,,,2,0,2,0,1,0,1,0,,,,,692.4445722,,,,,,,,,,,,,,1,active,,707.4292743999995,709.7132198999989,50.00000000000011,2.213,,,,692.4299425000008,697.4285473,697.4285603000008,697.4446769000006,707.5115994999996,707.4292632000015,,,,,,,,,,,,,,,,,,,,,,,,,,,,,sub-001,44.7,43.1,46.3,COM3,2024-01-23_13h27.13.746,2024_RDpaindiscrimination_maintask,2023.2.3,59.98825429984729,2024-01-23 13h27.59.975705 -0500,
0,0,0,0,,,,,2,0,2,0,,,,,0,0,0,0,712.7450534,,,,,,,,,,,,,,2,inactive,,,,,,,,,,,,,,,709.7135486999996,712.7314801000011,712.7321448999992,717.7290266,717.7290402000017,717.7451605000006,725.2453488999981,725.2453488999981,728.2454032000005,728.2454032000005,728.6954118000012,728.6792287000007,3.99,4.06,474,405,7.5,1.2,0.75,pic-present,1,n,0.5829180000000633,None,,,,,sub-001,44.7,43.1,46.3,COM3,2024-01-23_13h27.13.746,2024_RDpaindiscrimination_maintask,2023.2.3,59.98825429984729,2024-01-23 13h27.59.975705 -0500,
0,0,0,0,,,,,2,0,2,0,,,,,1,0,1,0,728.6954118000012,,,,,,,,,,,,,,3,active,,,,,,,,,,,,,,,,,728.6809268000015,733.6793468000014,733.6793605000003,733.6955405999997,741.1957291999988,741.1957291999988,744.1957975999994,744.1957975999994,744.6457882000013,744.6296406999991,4.14,3.91,488,391,7.5,1.2,0.75,pic-present,1,n,0.5767152000007627,None,,,,,sub-001,44.7,43.1,46.3,COM3,2024-01-23_13h27.13.746,2024_RDpaindiscrimination_maintask,2023.2.3,59.98825429984729,2024-01-23 13h27.59.975705 -0500,
0,0,0,0,,,,,2,0,2,0,,,,,2,0,2,0,744.6457882000013,,,,,,,,,,,,,,0,active,,,,,,,,,,,,,,,,,744.6311793000004,749.6297469000001,749.6297598000001,749.6459278999992,757.1461022999993,757.1461022999993,760.1461572999997,760.1461572999997,760.5961676999996,760.5800214999999,3.99,4.06,474,405,7.5,1.2,0.75,pic-absent,0,m,0.7103891000006115,None,,,,,sub-001,44.7,43.1,46.3,COM3,2024-01-23_13h27.13.746,2024_RDpaindiscrimination_maintask,2023.2.3,59.98825429984729,2024-01-23 13h27.59.975705 -0500,
0,0,0,0,,,,,2,0,2,0,,,,,3,0,3,0,760.5961676999996,,,,,,,,,,,,,,1,inactive,,,,,,,,,,,,,,,,,760.5815645999992,765.5801449999981,765.5801579999988,765.5962686000003,773.0964827000007,773.0964827000007,776.0965349000016,776.0965349000016,776.5465609000003,776.5303804999985,3.74,4.31,449,430,7.5,1.2,0.75,pic-present,1,n,1.219857399999455,None,,,,,sub-001,44.7,43.1,46.3,COM3,2024-01-23_13h27.13.746,2024_RDpaindiscrimination_maintask,2023.2.3,59.98825429984729,2024-01-23 13h27.59.975705 -0500,
0,0,0,0,,,,,3,0,3,0,0,0,0,0,,,,,781.1966717999985,,,,,,776.5319672999995,781.1809349999985,,,,,,,2,active,,796.1812979000006,798.9161648999998,28.500000000000078,2.665,,,,781.1815512000012,786.1806329999981,786.1806455999995,786.1967834000006,796.2637008000002,796.181286699999,,,,,,,,,,,,,,,,,,,,,,,,,,,,,sub-001,44.7,43.1,46.3,COM3,2024-01-23_13h27.13.746,2024_RDpaindiscrimination_maintask,2023.2.3,59.98825429984729,2024-01-23 13h27.59.975705 -0500,
0,0,0,0,,,,,3,0,3,0,1,0,1,0,,,,,798.9305454000005,,,,,,,,,,,,,,3,inactive,,813.9151178000011,816.0492878999994,57.9999999999999,2.064,,,,798.9172214000009,803.9143816999986,803.9143948000001,803.9305541999984,813.9974568000016,813.9151060999993,,,,,,,,,,,,,,,,,,,,,,,,,,,,,sub-001,44.7,43.1,46.3,COM3,2024-01-23_13h27.13.746,2024_RDpaindiscrimination_maintask,2023.2.3,59.98825429984729,2024-01-23 13h27.59.975705 -0500,
0,0,0,0,,,,,3,0,3,0,,,,,0,0,0,0,819.3975628999997,,,,,,,,,,,,,,0,active,,,,,,,,,,,,,,,816.0496287000005,819.3818360999994,819.3824828000015,824.3815288999995,824.3815422999996,824.3976803999994,831.8812071000011,831.8812071000011,834.8812597000015,834.8812597000015,835.3479595000008,835.3317431000014,4.12,3.93,487,393,7.5,1.2,0.75,pic-absent,0,m,0.6663246999996773,None,,,,,sub-001,44.7,43.1,46.3,COM3,2024-01-23_13h27.13.746,2024_RDpaindiscrimination_maintask,2023.2.3,59.98825429984729,2024-01-23 13h27.59.975705 -0500,
0,0,0,0,,,,,3,0,3,0,,,,,1,0,1,0,835.3479595000008,,,,,,,,,,,,,,1,inactive,,,,,,,,,,,,,,,,,835.3334497000014,840.3319066999993,840.3319213999985,840.348055299999,847.8482454999994,847.8482454999994,850.8483046999991,850.8483046999991,851.2983156999999,851.2821432000001,3.29,4.76,404,476,7.5,1.2,0.75,pic-present,1,n,1.2033341999995173,None,,,,,sub-001,44.7,43.1,46.3,COM3,2024-01-23_13h27.13.746,2024_RDpaindiscrimination_maintask,2023.2.3,59.98825429984729,2024-01-23 13h27.59.975705 -0500,
0,0,0,0,,,,,3,0,3,0,,,,,2,0,2,0,851.2983156999999,,,,,,,,,,,,,,2,inactive,,,,,,,,,,,,,,,,,851.2837124999987,856.2822811999995,856.2822943999981,856.2984340999992,863.7986279999986,863.7986279999986,866.7986832000006,866.7986832000006,867.2486941000006,867.2326091000014,4.22,3.83,497,383,7.5,1.2,0.75,pic-absent,0,m,0.8252896000012697,None,,,,,sub-001,44.7,43.1,46.3,COM3,2024-01-23_13h27.13.746,2024_RDpaindiscrimination_maintask,2023.2.3,59.98825429984729,2024-01-23 13h27.59.975705 -0500,
0,0,0,0,,,,,3,0,3,0,,,,,3,0,3,0,867.2486941000006,,,,,,,,,,,,,,3,active,,,,,,,,,,,,,,,,,867.2341402000002,872.2326432999998,872.2326564999985,872.2488132999988,879.7490087999995,879.7490087999995,882.7490611999983,882.7490611999983,883.2157648000011,883.1829067000017,3.32,4.73,407,473,7.5,1.2,0.75,pic-present,1,n,0.9592410000004747,None,,,,,sub-001,44.7,43.1,46.3,COM3,2024-01-23_13h27.13.746,2024_RDpaindiscrimination_maintask,2023.2.3,59.98825429984729,2024-01-23 13h27.59.975705 -0500,
1,0,1,0,0,0,0,0,,,,,,,,,,,,,960.3509214999995,,,,954.4020679000005,956.4352989999988,956.4353135000001,960.3352443999993,960.3358869999993,965.3348532,965.3348647000003,965.3510334000002,975.4345712999984,975.3355953000009,0,active,43.1,975.3356084999996,979.1038218999984,17.500000000000078,3.687,,,,,,,,,,,,,,,,,,,,,,,,,,,,,,,,,,883.1843132000013,954.4018037000005,,,sub-001,44.7,43.1,46.3,COM3,2024-01-23_13h27.13.746,2024_RDpaindiscrimination_maintask,2023.2.3,59.98825429984729,2024-01-23 13h27.59.975705 -0500,
1,0,1,0,1,0,1,0,,,,,,,,,,,,,979.1181110000016,,,,,,,,979.1051122000008,984.1019801999992,984.1019924000011,984.1181285000002,994.1850523999983,994.1027234999983,1,active,43.1,994.1027373999987,998.0041546000011,29.500000000000046,3.831,,,,,,,,,,,,,,,,,,,,,,,,,,,,,,,,,,,,,,sub-001,44.7,43.1,46.3,COM3,2024-01-23_13h27.13.746,2024_RDpaindiscrimination_maintask,2023.2.3,59.98825429984729,2024-01-23 13h27.59.975705 -0500,
1,0,1,0,2,0,2,0,,,,,,,,,,,,,998.0184740999994,,,,,,,,998.0051865000005,1003.0025361999997,1003.0025482000001,1003.0186368999985,1013.0855083000006,1013.0031268000002,2,inactive,44.7,1013.0031403000012,1015.088764099999,68.00000000000004,2.015,,,,,,,,,,,,,,,,,,,,,,,,,,,,,,,,,,,,,,sub-001,44.7,43.1,46.3,COM3,2024-01-23_13h27.13.746,2024_RDpaindiscrimination_maintask,2023.2.3,59.98825429984729,2024-01-23 13h27.59.975705 -0500,
1,0,1,0,3,0,3,0,,,,,,,,,,,,,1015.1188846999994,,,,,,,,1015.0904978999988,1020.1023779000006,1020.1023896999995,1020.1189752000009,,1030.1026083000015,3,inactive,44.7,1030.1026226000013,1032.5387549999996,59.49999999999986,2.366,,,,,,,,,,,,,,,,,,,,,,,,,,,,,,,,,,,,,,sub-001,44.7,43.1,46.3,COM3,2024-01-23_13h27.13.746,2024_RDpaindiscrimination_maintask,2023.2.3,59.98825429984729,2024-01-23 13h27.59.975705 -0500,
1,0,1,0,4,0,4,0,,,,,,,,,,,,,1032.5694027000009,,,,,,,,1032.5404925999992,1037.5527926000013,1037.5528040000008,1037.569390499999,,1047.5530362000009,0,active,43.1,1047.553049600001,1050.8395618000013,21.500000000000075,3.217,,,,,,,,,,,,,,,,,,,,,,,,,,,,,,,,,,,,,,sub-001,44.7,43.1,46.3,COM3,2024-01-23_13h27.13.746,2024_RDpaindiscrimination_maintask,2023.2.3,59.98825429984729,2024-01-23 13h27.59.975705 -0500,
1,0,1,0,5,0,5,0,,,,,,,,,,,,,1050.8698131,,,,,,,,1050.8412388000015,1055.8532259000003,1055.8532369000004,1055.8698191999993,,1065.8534673999984,1,inactive,44.7,1065.853481600001,1067.3244232999987,73.50000000000003,1.4,,,,,,,,,,,,,,,,,,,,,,,,,,,,,,,,,,,,,,sub-001,44.7,43.1,46.3,COM3,2024-01-23_13h27.13.746,2024_RDpaindiscrimination_maintask,2023.2.3,59.98825429984729,2024-01-23 13h27.59.975705 -0500,
1,0,1,0,6,0,6,0,,,,,,,,,,,,,1067.3534608999998,,,,,,,,1067.3261445000007,1072.3369581999996,1072.3369694000012,1072.3535581999986,,1082.3371717999999,2,inactive,44.7,1082.3371854000015,1085.2246886999983,60.49999999999989,2.818,,,,,,,,,,,,,,,,,,,,,,,,,,,,,,,,,,,,,,sub-001,44.7,43.1,46.3,COM3,2024-01-23_13h27.13.746,2024_RDpaindiscrimination_maintask,2023.2.3,59.98825429984729,2024-01-23 13h27.59.975705 -0500,
1,0,1,0,7,0,7,0,,,,,,,,,,,,,1085.2538637000016,,,,,,,,1085.2264330000016,1090.2373659999994,1090.2373768999987,1090.2539713999995,,1100.2375948999997,3,active,43.1,1100.2376090999987,1104.1059423999995,17.50000000000014,3.798,,,,,,,,,,,,,,,,,,,,,,,,,,,,,,,,,,,,,,sub-001,44.7,43.1,46.3,COM3,2024-01-23_13h27.13.746,2024_RDpaindiscrimination_maintask,2023.2.3,59.98825429984729,2024-01-23 13h27.59.975705 -0500,
1,0,1,0,8,0,8,0,,,,,,,,,,,,,1104.1210516999981,,,,,,,,1104.106542200001,1109.1049180999998,1109.1049298999988,1109.1210764000007,1119.1879632,1119.1056405,0,inactive,44.7,1119.1056565999988,1122.1071834000013,58.49999999999987,2.931,,,,,,,,,,,,,,,,,,,,,,,,,,,,,,,,,,,,,,sub-001,44.7,43.1,46.3,COM3,2024-01-23_13h27.13.746,2024_RDpaindiscrimination_maintask,2023.2.3,59.98825429984729,2024-01-23 13h27.59.975705 -0500,
1,0,1,0,9,0,9,0,,,,,,,,,,,,,1122.1213771999992,,,,,,,,1122.1082484999988,1127.1053803999985,1127.105392399999,1127.1215267999996,1137.1884002999996,1137.1060735999981,1,inactive,44.7,1137.1060877,1139.9570325000004,68.4999999999999,2.781,,,,,,,,,,,,,,,,,,,,,,,,,,,,,,,,,,,,,,sub-001,44.7,43.1,46.3,COM3,2024-01-23_13h27.13.746,2024_RDpaindiscrimination_maintask,2023.2.3,59.98825429984729,2024-01-23 13h27.59.975705 -0500,
1,0,1,0,10,0,10,0,,,,,,,,,,,,,1139.9719301999994,,,,,,,,1139.9583557999995,1144.9557885000013,1144.955800400001,1144.971941599999,1155.0388414999998,1154.9565027000008,2,active,43.1,1154.956516100001,1157.3241193000013,29.50000000000007,2.297,,,,,,,,,,,,,,,,,,,,,,,,,,,,,,,,,,,,,,sub-001,44.7,43.1,46.3,COM3,2024-01-23_13h27.13.746,2024_RDpaindiscrimination_maintask,2023.2.3,59.98825429984729,2024-01-23 13h27.59.975705 -0500,
1,0,1,0,11,0,11,0,,,,,,,,,,,,,1157.3389025999986,,,,,,,,1157.3246961999994,1162.3230031000003,1162.3230156000009,1162.3556862999994,,1172.3392697,3,active,43.1,1172.3392828999986,1173.9244707999987,39.499999999999964,1.514,,,,,,,,,,,,,,,,,,,,,,,,,,,,,,,,,,,,,,sub-001,44.7,43.1,46.3,COM3,2024-01-23_13h27.13.746,2024_RDpaindiscrimination_maintask,2023.2.3,59.98825429984729,2024-01-23 13h27.59.975705 -0500,
1,0,1,0,12,0,12,0,,,,,,,,,,,,,1173.9394014000009,,,,,,,,1173.9256073999986,1178.9232857000006,1178.923297700001,1178.9393895999983,1189.0063076999995,1188.9238859000016,0,inactive,44.7,1188.9238994999996,1191.7424292000014,85.4999999999999,2.749,,,,,,,,,,,,,,,,,,,,,,,,,,,,,,,,,,,,,,sub-001,44.7,43.1,46.3,COM3,2024-01-23_13h27.13.746,2024_RDpaindiscrimination_maintask,2023.2.3,59.98825429984729,2024-01-23 13h27.59.975705 -0500,
1,0,1,0,13,0,13,0,,,,,,,,,,,,,1191.7731466999994,,,,,,,,1191.744156499999,1196.7565621999984,1196.7565734,1196.7731618999987,,1206.7567868999995,1,active,43.1,1206.7568007999998,1208.9778553999986,41.99999999999996,2.151,,,,,,,,,,,,,,,,,,,,,,,,,,,,,,,,,,,,,,sub-001,44.7,43.1,46.3,COM3,2024-01-23_13h27.13.746,2024_RDpaindiscrimination_maintask,2023.2.3,59.98825429984729,2024-01-23 13h27.59.975705 -0500,
1,0,1,0,14,0,14,0,,,,,,,,,,,,,1209.0067623000014,,,,,,,,1208.9795422000007,1213.9902994999993,1213.9903111000003,1214.0069064,,1223.9905106999995,2,active,43.1,1223.9905243999983,1226.2930818000004,27.00000000000001,2.232,,,,,,,,,,,,,,,,,,,,,,,,,,,,,,,,,,,,,,sub-001,44.7,43.1,46.3,COM3,2024-01-23_13h27.13.746,2024_RDpaindiscrimination_maintask,2023.2.3,59.98825429984729,2024-01-23 13h27.59.975705 -0500,
1,0,1,0,15,0,15,0,,,,,,,,,,,,,1226.3238939999992,,,,,,,,1226.2947698000007,1231.3073591000011,1231.3073706000014,1231.3239354000016,,1241.307584600001,3,inactive,44.7,1241.3075990000016,1243.6615392000003,75.49999999999994,2.284,,,,,,,,,,,,,,,,,,,,,,,,,,,,,,,,,,,,,,sub-001,44.7,43.1,46.3,COM3,2024-01-23_13h27.13.746,2024_RDpaindiscrimination_maintask,2023.2.3,59.98825429984729,2024-01-23 13h27.59.975705 -0500,
1,0,1,0,,,,,0,0,0,0,0,0,0,0,,,,,1257.4079212000015,,,,,,1255.2427984000005,1257.3921444999996,,,,,,,0,inactive,,1272.3925881000014,1274.8289203000004,82.9999999999999,2.367,1243.662611499998,1243.6743660999982,1255.2421242,1257.3927478999994,1262.3919471999998,1262.3919602000005,1262.4080408999998,1272.4749479000002,1272.3925758999994,,,,,,,,,,,,,,,,,,,,,,,,,,,,,sub-001,44.7,43.1,46.3,COM3,2024-01-23_13h27.13.746,2024_RDpaindiscrimination_maintask,2023.2.3,59.98825429984729,2024-01-23 13h27.59.975705 -0500,
1,0,1,0,,,,,0,0,0,0,1,0,1,0,,,,,1274.8583439999984,,,,,,,,,,,,,,1,active,,1289.8420954000012,1291.794128200001,54.00000000000009,1.881,,,,1274.8305058999995,1279.8418535,1279.841865299999,1279.8584565,,1289.8420831999993,,,,,,,,,,,,,,,,,,,,,,,,,,,,,sub-001,44.7,43.1,46.3,COM3,2024-01-23_13h27.13.746,2024_RDpaindiscrimination_maintask,2023.2.3,59.98825429984729,2024-01-23 13h27.59.975705 -0500,
1,0,1,0,,,,,0,0,0,0,,,,,0,0,0,0,1295.8588274999984,,,,,,,,,,,,,,2,inactive,,,,,,,,,,,,,,,1291.7945961999994,1295.8432128000004,1295.8438740000001,1300.8427592999997,1300.8427724999983,1300.8589469999988,1308.3424694000005,1308.3424694000005,1311.342529399999,1311.342529399999,1311.8091869,1311.7930283000005,3.39,4.66,414,466,7.5,1.2,0.75,pic-absent,0,m,0.8842604999990726,None,,,,,sub-001,44.7,43.1,46.3,COM3,2024-01-23_13h27.13.746,2024_RDpaindiscrimination_maintask,2023.2.3,59.98825429984729,2024-01-23 13h27.59.975705 -0500,
1,0,1,0,,,,,0,0,0,0,,,,,1,0,1,0,1311.8091869,,,,,,,,,,,,,,3,active,,,,,,,,,,,,,,,,,1311.7947418999993,1316.7931731000008,1316.7931864000002,1316.8092880999993,1324.3095027,1324.3095027,1327.3095731000012,1327.3095731000012,1327.7595678999987,1327.7434707999982,3.8,4.25,455,425,7.5,1.2,0.75,pic-absent,0,m,0.5289255999996385,None,,,,,sub-001,44.7,43.1,46.3,COM3,2024-01-23_13h27.13.746,2024_RDpaindiscrimination_maintask,2023.2.3,59.98825429984729,2024-01-23 13h27.59.975705 -0500,
1,0,1,0,,,,,0,0,0,0,,,,,2,0,2,0,1327.7595678999987,,,,,,,,,,,,,,0,inactive,,,,,,,,,,,,,,,,,1327.7450255999993,1332.743511999999,1332.7435255,1332.7597139000009,1340.2598576,1340.2598576,1343.2599471000012,1343.2599471000012,1343.709944600001,1343.6937761999998,4.06,3.99,480,399,7.5,1.2,0.75,pic-present,1,n,0.7590159999999742,None,,,,,sub-001,44.7,43.1,46.3,COM3,2024-01-23_13h27.13.746,2024_RDpaindiscrimination_maintask,2023.2.3,59.98825429984729,2024-01-23 13h27.59.975705 -0500,
1,0,1,0,,,,,0,0,0,0,,,,,3,0,3,0,1343.709944600001,,,,,,,,,,,,,,1,inactive,,,,,,,,,,,,,,,,,1343.6953172999984,1348.6939040999987,1348.6939174999989,1348.7100572,1356.2102313000014,1356.2102313000014,1359.2103219,1359.2103219,1359.6603172999985,1359.6441461000013,3.57,4.48,432,448,7.5,1.2,0.75,pic-present,1,n,0.7525769999992917,None,,,,,sub-001,44.7,43.1,46.3,COM3,2024-01-23_13h27.13.746,2024_RDpaindiscrimination_maintask,2023.2.3,59.98825429984729,2024-01-23 13h27.59.975705 -0500,
1,0,1,0,,,,,1,0,1,0,0,0,0,0,,,,,1362.9603712000007,,,,,,1359.6457336000003,1362.9447620999981,,,,,,,2,active,,1377.9608137999985,1380.697270300001,46.99999999999997,2.665,,,,1362.945391700001,1367.9447143999987,1367.9447668999983,1367.9772348999995,,1377.9608021000004,,,,,,,,,,,,,,,,,,,,,,,,,,,,,sub-001,44.7,43.1,46.3,COM3,2024-01-23_13h27.13.746,2024_RDpaindiscrimination_maintask,2023.2.3,59.98825429984729,2024-01-23 13h27.59.975705 -0500,
1,0,1,0,,,,,1,0,1,0,1,0,1,0,,,,,1380.7275355000002,,,,,,,,,,,,,,3,inactive,,1395.7112577999997,1399.129769199999,80.99999999999991,3.348,,,,1380.6988293999984,1385.7110010999986,1385.7110129999983,1385.7275989999998,,1395.7112456999985,,,,,,,,,,,,,,,,,,,,,,,,,,,,,sub-001,44.7,43.1,46.3,COM3,2024-01-23_13h27.13.746,2024_RDpaindiscrimination_maintask,2023.2.3,59.98825429984729,2024-01-23 13h27.59.975705 -0500,
1,0,1,0,,,,,1,0,1,0,,,,,0,0,0,0,1403.2280306000011,,,,,,,,,,,,,,0,active,,,,,,,,,,,,,,,1399.1300963000012,1403.2122529999997,1403.2129017999996,1408.2120081000012,1408.2120212999998,1408.2281294000004,1415.7116631000008,1415.7116631000008,1418.7117277000016,1418.7117277000016,1419.1784057999994,1419.1622289999996,3.34,4.71,409,471,7.5,1.2,0.75,pic-absent,0,m,0.658959500000492,None,,,,,sub-001,44.7,43.1,46.3,COM3,2024-01-23_13h27.13.746,2024_RDpaindiscrimination_maintask,2023.2.3,59.98825429984729,2024-01-23 13h27.59.975705 -0500,
1,0,1,0,,,,,1,0,1,0,,,,,1,0,1,0,1419.1784057999994,,,,,,,,,,,,,,1,inactive,,,,,,,,,,,,,,,,,1419.1639244999988,1424.1624235,1424.1624370000009,1424.1785089999994,1431.6787038999992,1431.6787038999992,1434.6787692999987,1434.6787692999987,1435.1287820000016,1435.1128384999993,4.08,3.97,483,397,7.5,1.2,0.75,pic-present,1,n,0.49219369999991613,None,,,,,sub-001,44.7,43.1,46.3,COM3,2024-01-23_13h27.13.746,2024_RDpaindiscrimination_maintask,2023.2.3,59.98825429984729,2024-01-23 13h27.59.975705 -0500,
1,0,1,0,,,,,1,0,1,0,,,,,2,0,2,0,1435.1287820000016,,,,,,,,,,,,,,2,active,,,,,,,,,,,,,,,,,1435.1143796000015,1440.1128147,1440.112828899999,1440.1288793000003,1447.6290597999996,1447.6290597999996,1450.6291317000014,1450.6291317000014,1451.0791580999994,1451.0629743000009,4.19,3.86,494,386,7.5,1.2,0.75,pic-absent,0,m,0.5810248000016145,None,,,,,sub-001,44.7,43.1,46.3,COM3,2024-01-23_13h27.13.746,2024_RDpaindiscrimination_maintask,2023.2.3,59.98825429984729,2024-01-23 13h27.59.975705 -0500,
1,0,1,0,,,,,1,0,1,0,,,,,3,0,3,0,1451.0791580999994,,,,,,,,,,,,,,3,inactive,,,,,,,,,,,,,,,,,1451.0645147999985,1456.0631330000015,1456.0631459999986,1456.0792605000006,1463.5794595999996,1463.5794595999996,1466.5795282999989,1466.5795282999989,1467.0295152000017,1467.013379599999,3.27,4.78,402,478,7.5,1.2,0.75,pic-absent,0,m,1.3706242000007478,None,,,,,sub-001,44.7,43.1,46.3,COM3,2024-01-23_13h27.13.746,2024_RDpaindiscrimination_maintask,2023.2.3,59.98825429984729,2024-01-23 13h27.59.975705 -0500,
1,0,1,0,,,,,2,0,2,0,0,0,0,0,,,,,1469.8962516999982,,,,,,1467.0149653999997,1469.8805401000009,,,,,,,0,active,,1484.8809764999987,1487.5821764000011,39.00000000000014,2.631,,,,1469.881159300001,1474.8802438000002,1474.8802565999995,1474.8963673000017,1484.9632956000005,1484.8809657000002,,,,,,,,,,,,,,,,,,,,,,,,,,,,,sub-001,44.7,43.1,46.3,COM3,2024-01-23_13h27.13.746,2024_RDpaindiscrimination_maintask,2023.2.3,59.98825429984729,2024-01-23 13h27.59.975705 -0500,
1,0,1,0,,,,,2,0,2,0,1,0,1,0,,,,,1487.5968040999996,,,,,,,,,,,,,,1,inactive,,1502.5813538999992,1504.7655515999995,74.99999999999987,2.114,,,,1487.5832070999986,1492.5806651000003,1492.5806776000009,1492.596797799999,1502.6637137999987,1502.581342200001,,,,,,,,,,,,,,,,,,,,,,,,,,,,,sub-001,44.7,43.1,46.3,COM3,2024-01-23_13h27.13.746,2024_RDpaindiscrimination_maintask,2023.2.3,59.98825429984729,2024-01-23 13h27.59.975705 -0500,
1,0,1,0,,,,,2,0,2,0,,,,,0,0,0,0,1508.6138508999993,,,,,,,,,,,,,,2,active,,,,,,,,,,,,,,,1504.7660148999985,1508.5981015999987,1508.5987483000008,1513.5977746000008,1513.597788699999,1513.6139701999982,1521.097459999999,1521.097459999999,1524.0975481000005,1524.0975481000005,1524.564226299999,1524.5480369000015,3.91,4.14,466,413,7.5,1.2,0.75,pic-present,1,n,0.4005035999980464,None,,,,,sub-001,44.7,43.1,46.3,COM3,2024-01-23_13h27.13.746,2024_RDpaindiscrimination_maintask,2023.2.3,59.98825429984729,2024-01-23 13h27.59.975705 -0500,
1,0,1,0,,,,,2,0,2,0,,,,,1,0,1,0,1524.564226299999,,,,,,,,,,,,,,3,active,,,,,,,,,,,,,,,,,1524.5497430999985,1529.5481553000009,1529.5481683000016,1529.5643449,1537.0645230999999,1537.0645230999999,1540.0645926000016,1540.0645926000016,1540.5146022999998,1540.4984004000016,3.98,4.07,473,407,7.5,1.2,0.75,pic-present,1,n,0.753494700002193,None,,,,,sub-001,44.7,43.1,46.3,COM3,2024-01-23_13h27.13.746,2024_RDpaindiscrimination_maintask,2023.2.3,59.98825429984729,2024-01-23 13h27.59.975705 -0500,
1,0,1,0,,,,,2,0,2,0,,,,,2,0,2,0,1540.5146022999998,,,,,,,,,,,,,,0,inactive,,,,,,,,,,,,,,,,,1540.4999393000016,1545.498667599999,1545.4986808000012,1545.514717699998,1553.0148801999985,1553.0148801999985,1556.0149703000006,1556.0149703000006,1556.4649813000015,1556.4487931999993,4.12,3.93,487,393,7.5,1.2,0.75,pic-absent,0,m,0.3713807000021916,None,,,,,sub-001,44.7,43.1,46.3,COM3,2024-01-23_13h27.13.746,2024_RDpaindiscrimination_maintask,2023.2.3,59.98825429984729,2024-01-23 13h27.59.975705 -0500,
1,0,1,0,,,,,2,0,2,0,,,,,3,0,3,0,1556.4649813000015,,,,,,,,,,,,,,1,active,,,,,,,,,,,,,,,,,1556.450335399999,1561.4490155000003,1561.4490290000012,1561.4652001999984,1568.965264299999,1568.965264299999,1571.9653425999986,1571.9653425999986,1572.4153509000007,1572.399239100001,3.84,4.21,459,421,7.5,1.2,0.75,pic-present,1,n,0.5491169000015361,None,,,,,sub-001,44.7,43.1,46.3,COM3,2024-01-23_13h27.13.746,2024_RDpaindiscrimination_maintask,2023.2.3,59.98825429984729,2024-01-23 13h27.59.975705 -0500,
1,0,1,0,,,,,3,0,3,0,0,0,0,0,,,,,1575.4487633000008,,,,,,1572.4008043999984,1575.4330060999982,,,,,,,2,inactive,,1590.4334321000006,1592.6364852999995,85.49999999999997,2.133,,,,1575.4336254999998,1580.4327417000004,1580.432754899999,1580.4488779000003,1590.5157657,1590.4334211000005,,,,,,,,,,,,,,,,,,,,,,,,,,,,,sub-001,44.7,43.1,46.3,COM3,2024-01-23_13h27.13.746,2024_RDpaindiscrimination_maintask,2023.2.3,59.98825429984729,2024-01-23 13h27.59.975705 -0500,
1,0,1,0,,,,,3,0,3,0,1,0,1,0,,,,,1592.665940500001,,,,,,,,,,,,,,3,active,,1607.6495932999987,1610.9021029999985,33.49999999999995,3.182,,,,1592.638060700001,1597.6493327000007,1597.6493453999992,1597.6659162999986,,1607.6495818999992,,,,,,,,,,,,,,,,,,,,,,,,,,,,,sub-001,44.7,43.1,46.3,COM3,2024-01-23_13h27.13.746,2024_RDpaindiscrimination_maintask,2023.2.3,59.98825429984729,2024-01-23 13h27.59.975705 -0500,
1,0,1,0,,,,,3,0,3,0,,,,,0,0,0,0,1614.449681,,,,,,,,,,,,,,0,inactive,,,,,,,,,,,,,,,1610.9024388000016,1614.4339187999994,1614.4345631000015,1619.4336582000014,1619.4336716999987,1619.4497847000002,1626.933269700001,1626.933269700001,1629.9333793999995,1629.9333793999995,1630.400055,1630.3839329999992,3.71,4.34,446,434,7.5,1.2,0.75,pic-present,1,n,0.560267599998042,None,,,,,sub-001,44.7,43.1,46.3,COM3,2024-01-23_13h27.13.746,2024_RDpaindiscrimination_maintask,2023.2.3,59.98825429984729,2024-01-23 13h27.59.975705 -0500,
1,0,1,0,,,,,3,0,3,0,,,,,1,0,1,0,1630.400055,,,,,,,,,,,,,,1,inactive,,,,,,,,,,,,,,,,,1630.3856317000009,1635.3839819000004,1635.3839949000012,1635.4001835,1642.9003300999993,1642.9003300999993,1645.9004043000004,1645.9004043000004,1646.350432000001,1646.3342361000014,4.15,3.9,490,390,7.5,1.2,0.75,pic-absent,0,m,0.8656049000019266,None,,,,,sub-001,44.7,43.1,46.3,COM3,2024-01-23_13h27.13.746,2024_RDpaindiscrimination_maintask,2023.2.3,59.98825429984729,2024-01-23 13h27.59.975705 -0500,
1,0,1,0,,,,,3,0,3,0,,,,,2,0,2,0,1646.350432000001,,,,,,,,,,,,,,2,active,,,,,,,,,,,,,,,,,1646.3357651999995,1651.3344094000004,1651.3344229999984,1651.3505318000007,1658.8507072000011,1658.8507072000011,1661.8507975999983,1661.8507975999983,1662.3007966999994,1662.2846563000003,3.37,4.68,412,468,7.5,1.2,0.75,pic-present,1,n,0.38757280000208993,None,,,,,sub-001,44.7,43.1,46.3,COM3,2024-01-23_13h27.13.746,2024_RDpaindiscrimination_maintask,2023.2.3,59.98825429984729,2024-01-23 13h27.59.975705 -0500,
1,0,1,0,,,,,3,0,3,0,,,,,3,0,3,0,1662.3007966999994,,,,,,,,,,,,,,3,active,,,,,,,,,,,,,,,,,1662.2861858999986,1667.28478,1667.2847932999994,1667.3009132999996,1674.8011010999999,1674.8011010999999,1677.801156200001,1677.801156200001,1678.2511608000004,1678.2349583000014,3.67,4.38,442,438,7.5,1.2,0.75,pic-absent,0,m,0.5246102999990399,None,,,,,sub-001,44.7,43.1,46.3,COM3,2024-01-23_13h27.13.746,2024_RDpaindiscrimination_maintask,2023.2.3,59.98825429984729,2024-01-23 13h27.59.975705 -0500,
,,,,,,,,,,,,,,,,,,,,,,,,,,,,,,,,,,,,,,,,,,,,,,,,,,,,,,,,,,,,,,,,,,,,,,,,,,1678.2363817999994,1688.9023394999986,1688.9023738000014,1698.9021397000015,,,,,,,,,,,
