trials.thisRepN,trials.thisTrialN,trials.thisN,trials.thisIndex,thisRow.t,notes,trial.started,trial.stopped,wait.started,wait.stopped,triggerrrs.started,thermode_locali_pic.started,percu_or.started,responser.started,thermode_locali_pic.stopped,percu_or.stopped,responser.stopped,triggerrrs.stopped,dur_plateau1,dur_plateau2,dur_plateau1_sent,dur_plateau2_sent,start_plateau_2_resp,start_detect_cue,dur_pic,dur_rise,temp_plateau_sent,loca_thermode,pic_sent,quest_intens,pic_response,discrimin_resp.keys,discrimin_resp.rt,discrimin_resp.duration,Cali_fin.started,text.started,text.stopped,Cali_fin.stopped,mean_6_reversals,pic_a_utiliser,threshold,participant,com_thermode,temp_plateau,date,expName,psychopyVersion,frameRate,expStart,
0,0,0,0,52.27807750005741,,0.010860800044611096,52.26168920006603,52.26202800008468,57.26164190005511,57.261648799991235,57.278147500008345,65.26152170007117,65.26152170007117,67.47825749998447,68.26159210002515,68.26159210002515,68.24516739998944,3.46,5.34,346,534,8,3,1.2,0.75,434,0,442,0.8,1,n,2.4950326000107452,None,,,,,,,,sub-015,COM3,43.4,2024-02-06_15h01.50.106,2024_RDpaindiscrimination_QUEST,2023.2.3,60.002868103052705,2024-02-06 15h02.14.767824 -0500,
1,0,1,0,68.26159210002515,,,,68.24635340005625,73.24513990001287,73.24514650006313,73.26165750005748,81.2617436000146,81.2617436000146,83.46176249999553,84.26178900001105,84.26178900001105,84.24529660004191,3.96,4.84,396,484,8,3,1.2,0.75,434,1,438,0.4,0,m,1.0299103999277577,None,,,,,,,,sub-015,COM3,43.4,2024-02-06_15h01.50.106,2024_RDpaindiscrimination_QUEST,2023.2.3,60.002868103052705,2024-02-06 15h02.14.767824 -0500,
2,0,2,0,84.26178900001105,,,,84.24621780007146,89.24532730004285,89.24533409997821,89.26184509997256,97.24526140000671,97.24526140000671,99.46195330005139,100.24529780005105,100.24529780005105,100.2288103000028,3.96,4.84,396,484,8,3,1.2,0.75,434,2,441,0.7,1,n,0.5224782999139279,None,,,,,,,,sub-015,COM3,43.4,2024-02-06_15h01.50.106,2024_RDpaindiscrimination_QUEST,2023.2.3,60.002868103052705,2024-02-06 15h02.14.767824 -0500,
3,0,3,0,100.24529780005105,,,,100.22970829997212,105.22884580004029,105.22885279997718,105.24534770008177,113.22877380007412,113.22877380007412,115.44546740001533,116.22881340002641,116.22881340002641,116.21232609997969,3.71,5.09,371,509,8,3,1.2,0.75,434,3,441,0.7,1,n,0.9988108000252396,None,,,,,,,,sub-015,COM3,43.4,2024-02-06_15h01.50.106,2024_RDpaindiscrimination_QUEST,2023.2.3,60.002868103052705,2024-02-06 15h02.14.767824 -0500,
4,0,4,0,116.22881340002641,,,,116.21324170008302,121.21236770006362,121.21237459999975,121.22886420006398,129.2124133000616,129.2124133000616,131.429104299983,132.21243459999096,132.21243459999096,132.19596550008282,4.32,4.48,432,448,8,3,1.2,0.75,434,0,439,0.49999999999999994,1,n,0.6318810000084341,None,,,,,,,,sub-015,COM3,43.4,2024-02-06_15h01.50.106,2024_RDpaindiscrimination_QUEST,2023.2.3,60.002868103052705,2024-02-06 15h02.14.767824 -0500,
5,0,5,0,132.21243459999096,,,,132.19687890005298,137.19597210001666,137.19597840006463,137.21238420007285,145.195916900062,145.195916900062,147.41261980007403,148.19595810002647,148.19595810002647,148.17947760003153,3.96,4.84,396,484,8,3,1.2,0.75,434,1,439,0.49999999999999994,0,m,0.5445992000168189,None,,,,,,,,sub-015,COM3,43.4,2024-02-06_15h01.50.106,2024_RDpaindiscrimination_QUEST,2023.2.3,60.002868103052705,2024-02-06 15h02.14.767824 -0500,
6,0,6,0,148.19595810002647,,,,148.18037379998714,153.17954020004254,153.17954709997866,153.19601090007927,161.17943470005412,161.17943470005412,163.39608209999278,164.17947740003,164.17947740003,164.16299230000004,3.36,5.44,336,544,8,3,1.2,0.75,434,2,440,0.6,1,n,0.3125352000351995,None,,,,,,,,sub-015,COM3,43.4,2024-02-06_15h01.50.106,2024_RDpaindiscrimination_QUEST,2023.2.3,60.002868103052705,2024-02-06 15h02.14.767824 -0500,
7,0,7,0,164.17947740003,,,,164.1639355000807,169.16297419997863,169.1629805000266,169.1794121999992,177.16294960002415,177.16294960002415,179.3796416000696,180.16298760008067,180.16298760008067,180.14651380002033,3.8,5.0,380,500,8,3,1.2,0.75,434,3,440,0.6,1,n,0.7883375999517739,None,,,,,,,,sub-015,COM3,43.4,2024-02-06_15h01.50.106,2024_RDpaindiscrimination_QUEST,2023.2.3,60.002868103052705,2024-02-06 15h02.14.767824 -0500,
8,0,8,0,180.16298760008067,,,,180.1474436999997,185.1465496000601,185.14655649999622,185.1630390000064,193.14645250001922,193.14645250001922,195.36315260000993,196.14649519999512,196.14649519999512,196.12992179999128,3.45,5.35,345,535,8,3,1.2,0.75,434,0,439,0.5,0,m,0.4620260999072343,None,,,,,,,,sub-015,COM3,43.4,2024-02-06_15h01.50.106,2024_RDpaindiscrimination_QUEST,2023.2.3,60.002868103052705,2024-02-06 15h02.14.767824 -0500,
9,0,9,0,196.14649519999512,,,,196.13087550003547,201.12999980000313,201.13000620005187,201.14647719997447,209.1299722000258,209.1299722000258,211.3466602000408,212.13000570004806,212.13000570004806,212.11353109998163,4.63,4.17,463,417,8,3,1.2,0.75,434,1,440,0.6,0,m,0.4628141999710351,None,,,,,,,,sub-015,COM3,43.4,2024-02-06_15h01.50.106,2024_RDpaindiscrimination_QUEST,2023.2.3,60.002868103052705,2024-02-06 15h02.14.767824 -0500,
10,0,10,0,212.13000570004806,,,,212.11447899998166,217.11349939997308,217.11350640002638,217.12999520008452,225.11343050003052,225.11343050003052,227.33018609997816,228.11353159998544,228.11353159998544,228.0970339999767,3.64,5.16,364,516,8,3,1.2,0.75,434,2,441,0.7,1,n,0.6994125999044627,None,,,,,,,,sub-015,COM3,43.4,2024-02-06_15h01.50.106,2024_RDpaindiscrimination_QUEST,2023.2.3,60.002868103052705,2024-02-06 15h02.14.767824 -0500,
11,0,11,0,228.11353159998544,,,,228.09798050008249,233.0969833000563,233.09699039999396,233.1135013999883,241.0969871999696,241.0969871999696,243.3137326000724,244.09703599999193,244.09703599999193,244.08054110000376,3.77,5.03,377,503,8,3,1.2,0.75,434,3,441,0.7,1,n,0.42345270002260804,None,,,,,,,,sub-015,COM3,43.4,2024-02-06_15h01.50.106,2024_RDpaindiscrimination_QUEST,2023.2.3,60.002868103052705,2024-02-06 15h02.14.767824 -0500,
12,0,12,0,244.09703599999193,,,,244.08155430003535,249.0805899000261,249.08059680007864,249.0971290000016,257.0805212999694,257.0805212999694,259.29721230000723,260.0805584000191,260.0805584000191,260.0640580999898,4.32,4.48,432,448,8,3,1.2,0.75,434,0,440,0.6,1,n,0.6624949000542983,None,,,,,,,,sub-015,COM3,43.4,2024-02-06_15h01.50.106,2024_RDpaindiscrimination_QUEST,2023.2.3,60.002868103052705,2024-02-06 15h02.14.767824 -0500,
13,0,13,0,260.0805584000191,,,,260.06503280007746,265.06405689998064,265.0640642000362,265.08056490006857,273.06403260002844,273.06403260002844,275.2806840999983,276.06406750006136,276.06406750006136,276.04759440000635,4.61,4.19,461,419,8,3,1.2,0.75,434,1,440,0.6,1,n,0.4357546999817714,None,,,,,,,,sub-015,COM3,43.4,2024-02-06_15h01.50.106,2024_RDpaindiscrimination_QUEST,2023.2.3,60.002868103052705,2024-02-06 15h02.14.767824 -0500,
14,0,14,0,276.06406750006136,,,,276.0485317000421,281.0476165000582,281.0476232999936,281.0641263000434,289.0475071000401,289.0475071000401,291.2642426000675,292.04833460005466,292.04833460005466,292.0310942999786,4.28,4.52,428,451,8,3,1.2,0.75,434,2,439,0.5,1,n,1.4284422000637278,None,,,,,,,,sub-015,COM3,43.4,2024-02-06_15h01.50.106,2024_RDpaindiscrimination_QUEST,2023.2.3,60.002868103052705,2024-02-06 15h02.14.767824 -0500,
15,0,15,0,292.04833460005466,,,,292.032004000037,297.0310987000121,297.0311059000669,297.0475982000353,305.03102250001393,305.03102250001393,307.2477029999718,308.0310924000805,308.0310924000805,308.0146111000795,3.88,4.92,388,492,8,3,1.2,0.75,434,3,439,0.5,1,n,0.5331428999779746,None,,,,,,,,sub-015,COM3,43.4,2024-02-06_15h01.50.106,2024_RDpaindiscrimination_QUEST,2023.2.3,60.002868103052705,2024-02-06 15h02.14.767824 -0500,
16,0,16,0,308.0310924000805,,,,308.0155681000324,313.01466159999836,313.01466840005014,313.0311134000076,321.01459100004286,321.01459100004286,323.231263600057,324.0146198000293,324.0146198000293,323.9981538000284,3.31,5.49,331,549,8,3,1.2,0.75,434,0,438,0.4,1,n,1.0058916000416502,None,,,,,,,,sub-015,COM3,43.4,2024-02-06_15h01.50.106,2024_RDpaindiscrimination_QUEST,2023.2.3,60.002868103052705,2024-02-06 15h02.14.767824 -0500,
17,0,17,0,324.0146198000293,,,,323.99905790004414,328.99812130001374,328.99812910007313,329.01462819997687,336.99808090005536,336.99808090005536,339.21475180005655,340.04815040004905,340.04815040004905,339.9816287000431,4.28,4.52,428,451,8,3,1.2,0.75,434,1,438,0.4,1,n,1.0065864000935107,None,,,,,,,,sub-015,COM3,43.4,2024-02-06_15h01.50.106,2024_RDpaindiscrimination_QUEST,2023.2.3,60.002868103052705,2024-02-06 15h02.14.767824 -0500,
18,0,18,0,340.04815040004905,,,,339.9825845999876,344.998222000082,344.99822760000825,345.0148561000824,352.981540900073,352.981540900073,355.21484530007,355.98152729996946,355.98152729996946,355.96502290002536,3.37,5.43,337,543,8,3,1.2,0.75,434,2,437,0.30000000000000004,1,n,1.0578599000582471,None,,,,,,,,sub-015,COM3,43.4,2024-02-06_15h01.50.106,2024_RDpaindiscrimination_QUEST,2023.2.3,60.002868103052705,2024-02-06 15h02.14.767824 -0500,
19,0,19,0,355.98152729996946,,,,355.9659767000703,360.9651420000009,360.96514870005194,360.9816631000722,368.965138199972,368.965138199972,371.18168779998086,371.9650437000673,371.9650437000673,371.9485587000381,3.6,5.2,360,520,8,3,1.2,0.75,434,3,437,0.30000000000000004,1,n,0.7386442000279203,None,,,,,,,,sub-015,COM3,43.4,2024-02-06_15h01.50.106,2024_RDpaindiscrimination_QUEST,2023.2.3,60.002868103052705,2024-02-06 15h02.14.767824 -0500,
20,0,20,0,371.9650437000673,,,,371.94948980002664,376.9485887000337,376.94859559996985,376.9651004000334,384.9485244000098,384.9485244000098,387.16521440004,387.9485979999881,387.9485979999881,387.93207880004775,4.12,4.68,412,468,8,3,1.2,0.75,434,0,437,0.3,0,m,0.6948146999347955,None,,,,,,,,sub-015,COM3,43.4,2024-02-06_15h01.50.106,2024_RDpaindiscrimination_QUEST,2023.2.3,60.002868103052705,2024-02-06 15h02.14.767824 -0500,
21,0,21,0,387.9485979999881,,,,387.93297730002087,392.93289300007746,392.9328999000136,392.9486135999905,400.93204149999656,400.93204149999656,403.14875300007407,403.93207410001196,403.93207410001196,403.91559300001245,4.55,4.25,455,425,8,3,1.2,0.75,434,1,438,0.4,0,m,0.747645299998112,None,,,,,,,,sub-015,COM3,43.4,2024-02-06_15h01.50.106,2024_RDpaindiscrimination_QUEST,2023.2.3,60.002868103052705,2024-02-06 15h02.14.767824 -0500,
22,0,22,0,403.93207410001196,,,,403.9165521999821,408.9156194999814,408.9156263000332,408.93210029997863,416.91552030004095,416.91552030004095,419.1322290999815,419.9156275000423,419.9156275000423,419.8991154000396,3.74,5.06,374,505,8,3,1.2,0.75,434,2,439,0.5,1,n,0.5156928000506014,None,,,,,,,,sub-015,COM3,43.4,2024-02-06_15h01.50.106,2024_RDpaindiscrimination_QUEST,2023.2.3,60.002868103052705,2024-02-06 15h02.14.767824 -0500,
23,0,23,0,419.9156275000423,,,,419.90003040002193,424.89913899998646,424.89914760005195,424.9156617000699,432.89907460007817,432.89907460007817,435.11576199997216,435.8991444000276,435.8991444000276,435.8826264999807,3.69,5.11,369,511,8,3,1.2,0.75,434,3,439,0.5,1,n,0.7529291000682861,None,,,,,,,,sub-015,COM3,43.4,2024-02-06_15h01.50.106,2024_RDpaindiscrimination_QUEST,2023.2.3,60.002868103052705,2024-02-06 15h02.14.767824 -0500,
24,0,24,0,435.8991444000276,,,,435.8835743999807,440.8827043999918,440.8827113000443,440.89916470006574,448.8825897000497,448.8825897000497,451.0992896000389,451.8826694000745,451.8826694000745,451.86615050002,4.54,4.26,454,426,8,3,1.2,0.75,434,0,438,0.4,1,n,0.668465800001286,None,,,,,,,,sub-015,COM3,43.4,2024-02-06_15h01.50.106,2024_RDpaindiscrimination_QUEST,2023.2.3,60.002868103052705,2024-02-06 15h02.14.767824 -0500,
25,0,25,0,451.8826694000745,,,,451.86710180004593,456.8661686000414,456.866175299976,456.88267970003653,464.8661105000647,464.8661105000647,467.08279910008423,467.8661699000513,467.8661699000513,467.8496523000067,4.2,4.6,420,459,8,3,1.2,0.75,434,1,438,0.4,1,n,0.9573989000637084,None,,,,,,,,sub-015,COM3,43.4,2024-02-06_15h01.50.106,2024_RDpaindiscrimination_QUEST,2023.2.3,60.002868103052705,2024-02-06 15h02.14.767824 -0500,
26,0,26,0,467.8661699000513,,,,467.85055329999886,472.8496942999773,472.8497013000306,472.86620759998914,480.8496644999832,480.8496644999832,483.0663815999869,483.8496844000183,483.8496844000183,483.8331797000719,4.61,4.19,461,419,8,3,1.2,0.75,434,2,437,0.30000000000000004,0,m,0.4978936000261456,None,,,,,,,,sub-015,COM3,43.4,2024-02-06_15h01.50.106,2024_RDpaindiscrimination_QUEST,2023.2.3,60.002868103052705,2024-02-06 15h02.14.767824 -0500,
27,0,27,0,483.8496844000183,,,,483.8340889000101,488.8332087000599,488.83321529999375,488.849719800055,496.83313919999637,496.83313919999637,499.049830700038,499.8331769000506,499.8331769000506,499.8167436000658,4.71,4.09,471,409,8,3,1.2,0.75,434,3,438,0.4,1,n,0.41046119993552566,None,,,,,,,,sub-015,COM3,43.4,2024-02-06_15h01.50.106,2024_RDpaindiscrimination_QUEST,2023.2.3,60.002868103052705,2024-02-06 15h02.14.767824 -0500,
28,0,28,0,499.8331769000506,,,,499.817688500043,504.81672390003223,504.81673080008477,504.83323320001364,512.816656799987,512.816656799987,515.0333480000263,515.8166835000739,515.8166835000739,515.8002181000775,4.04,4.76,404,476,8,3,1.2,0.75,434,0,438,0.4,0,m,1.3592286999337375,None,,,,,,,,sub-015,COM3,43.4,2024-02-06_15h01.50.106,2024_RDpaindiscrimination_QUEST,2023.2.3,60.002868103052705,2024-02-06 15h02.14.767824 -0500,
29,0,29,0,515.8166835000739,,,,515.8011500000721,520.8002858000109,520.8002920000581,520.816751300008,528.8001735999715,528.8001735999715,531.0168921999866,531.8002569000237,531.8002569000237,531.7837226999691,3.68,5.12,368,512,8,3,1.2,0.75,434,1,439,0.5,0,m,1.1753324000164866,None,,,,,,,,sub-015,COM3,43.4,2024-02-06_15h01.50.106,2024_RDpaindiscrimination_QUEST,2023.2.3,60.002868103052705,2024-02-06 15h02.14.767824 -0500,
30,0,30,0,531.8002569000237,,,,531.7846314000199,536.7837555999868,536.7837623000378,536.8002716000192,544.7837393999798,544.7837393999798,547.0004152000183,547.7837676000781,547.7837676000781,547.7672770000063,4.75,4.05,475,405,8,3,1.2,0.75,434,2,440,0.6,1,n,0.5236299999523908,None,,,,,,,,sub-015,COM3,43.4,2024-02-06_15h01.50.106,2024_RDpaindiscrimination_QUEST,2023.2.3,60.002868103052705,2024-02-06 15h02.14.767824 -0500,
31,0,31,0,547.7837676000781,,,,547.7682060999796,552.7673118000384,552.7673182999715,552.7838736000704,560.7672361000441,560.7672361000441,562.9839312999975,563.7672965000384,563.7672965000384,563.7507957000053,3.97,4.83,397,483,8,3,1.2,0.75,434,3,440,0.6,1,n,0.7120940000750124,None,,,,,,,,sub-015,COM3,43.4,2024-02-06_15h01.50.106,2024_RDpaindiscrimination_QUEST,2023.2.3,60.002868103052705,2024-02-06 15h02.14.767824 -0500,
,,,,,,,,,,,,,,,,,,,,,,,,,,,,,,,,,,563.7516177999787,563.7672965000384,569.8173419000814,569.7508415000048,0.48333333333333334,43.88333333333333,0.5156928418429941,,,,,,,,,
