trials.thisRepN,trials.thisTrialN,trials.thisN,trials.thisIndex,thisRow.t,notes,trial.started,trial.stopped,wait.started,wait.stopped,triggerrrs.started,thermode_locali_pic.started,percu_or.started,responser.started,thermode_locali_pic.stopped,percu_or.stopped,responser.stopped,triggerrrs.stopped,dur_plateau1,dur_plateau2,dur_plateau1_sent,dur_plateau2_sent,start_plateau_2_resp,start_detect_cue,dur_pic,dur_rise,temp_plateau_sent,loca_thermode,pic_sent,quest_intens,pic_response,discrimin_resp.keys,discrimin_resp.rt,discrimin_resp.duration,Cali_fin.started,text.started,text.stopped,Cali_fin.stopped,mean_6_reversals,pic_a_utiliser,threshold,participant,com_thermode,temp_plateau,date,expName,psychopyVersion,frameRate,expStart,
0,0,0,0,77.03355200006627,,0.016144300112500787,77.0172568000853,77.01761330012232,82.01713689998724,82.01714340015315,82.03359930007719,90.01710640010424,90.01710640010424,92.23377820011228,93.01707400009036,93.01707400009036,93.00057739997283,4.41,4.39,441,438,8,3,1.2,0.75,464,0,472,0.8,None,None,,,,,,,,,,sub-040,COM3,46.4,2024-06-07_13h25.12.868,2024_RDpaindiscrimination_QUEST,2023.2.3,60.03038734789867,2024-06-07 13h25.30.772696 -0400,
1,0,1,0,93.01707400009036,,,,93.00165610015392,98.00061490014195,98.00062120007351,98.0171801999677,106.01720619993284,106.01720619993284,108.21723069995642,109.0172598999925,109.0172598999925,109.00075979996473,3.33,5.47,333,547,8,3,1.2,0.75,464,1,472,0.8,1,m,0.49533529998734593,None,,,,,,,,sub-040,COM3,46.4,2024-06-07_13h25.12.868,2024_RDpaindiscrimination_QUEST,2023.2.3,60.03038734789867,2024-06-07 13h25.30.772696 -0400,
2,0,2,0,109.0172598999925,,,,109.00174390012398,114.00078090000898,114.00078719994053,114.01728210016154,122.00070330011658,122.00070330011658,124.21748040011153,125.0008189000655,125.0008189000655,124.98433220013976,3.48,5.32,348,532,8,3,1.2,0.75,464,2,468,0.4,0,n,0.6876143999397755,None,,,,,,,,sub-040,COM3,46.4,2024-06-07_13h25.12.868,2024_RDpaindiscrimination_QUEST,2023.2.3,60.03038734789867,2024-06-07 13h25.30.772696 -0400,
3,0,3,0,125.0008189000655,,,,124.98525000014342,129.98442510003224,129.98443130007945,130.00085890013725,137.9842811000999,137.9842811000999,140.20097120013088,140.98437039996497,140.98437039996497,140.96784220007248,4.3,4.5,430,450,8,3,1.2,0.75,464,3,471,0.7,0,n,0.6480459999293089,None,,,,,,,,sub-040,COM3,46.4,2024-06-07_13h25.12.868,2024_RDpaindiscrimination_QUEST,2023.2.3,60.03038734789867,2024-06-07 13h25.30.772696 -0400,
4,0,4,0,140.98437039996497,,,,140.96879500010982,145.96786150010303,145.9678680000361,145.98438340006396,153.96780580002815,153.96780580002815,156.18448129994795,156.96781360008754,156.96781360008754,156.95135240000673,3.86,4.94,386,494,8,3,1.2,0.75,464,0,474,1.0,1,m,0.7043299998622388,None,,,,,,,,sub-040,COM3,46.4,2024-06-07_13h25.12.868,2024_RDpaindiscrimination_QUEST,2023.2.3,60.03038734789867,2024-06-07 13h25.30.772696 -0400,
5,0,5,0,156.96781360008754,,,,156.95227940008044,161.95135230012238,161.95135829993524,161.96782599994913,169.9512837000657,169.9512837000657,172.16794360009953,172.95127049996518,172.95127049996518,172.93479000008665,3.28,5.52,328,552,8,3,1.2,0.75,464,1,474,1.0,1,m,0.5247029999736696,None,,,,,,,,sub-040,COM3,46.4,2024-06-07_13h25.12.868,2024_RDpaindiscrimination_QUEST,2023.2.3,60.03038734789867,2024-06-07 13h25.30.772696 -0400,
6,0,6,0,172.95127049996518,,,,172.93572250008583,177.93484740005806,177.93485369998962,177.95136060006917,185.93478280003183,185.93478280003183,188.151431000093,188.93477130006067,188.93477130006067,188.91828100010753,3.69,5.11,369,511,8,3,1.2,0.75,464,2,472,0.8,0,n,0.5209968001581728,None,,,,,,,,sub-040,COM3,46.4,2024-06-07_13h25.12.868,2024_RDpaindiscrimination_QUEST,2023.2.3,60.03038734789867,2024-06-07 13h25.30.772696 -0400,
7,0,7,0,188.93477130006067,,,,188.91923070000485,193.91836140002124,193.9183676999528,193.93482460011728,201.9182738000527,201.9182738000527,204.13496630010195,204.91827030014247,204.91827030014247,204.90177939995192,3.93,4.87,393,487,8,3,1.2,0.75,464,3,473,0.9,1,m,0.4816854000091553,None,,,,,,,,sub-040,COM3,46.4,2024-06-07_13h25.12.868,2024_RDpaindiscrimination_QUEST,2023.2.3,60.03038734789867,2024-06-07 13h25.30.772696 -0400,
8,0,8,0,204.91827030014247,,,,204.90272350003943,209.9018129000906,209.90181950014085,209.9183223999571,217.90177959995344,217.90177959995344,220.1184223999735,220.90176020003855,220.90176020003855,220.88531109993346,3.63,5.17,363,517,8,3,1.2,0.75,464,0,473,0.9,0,n,0.673931899946183,None,,,,,,,,sub-040,COM3,46.4,2024-06-07_13h25.12.868,2024_RDpaindiscrimination_QUEST,2023.2.3,60.03038734789867,2024-06-07 13h25.30.772696 -0400,
9,0,9,0,220.90176020003855,,,,220.886246799957,225.8854145000223,225.885420500068,225.90181970014237,233.88522649998777,233.88522649998777,236.1018409000244,236.88521880004555,236.88521880004555,236.86872639996,4.11,4.69,411,469,8,3,1.2,0.75,464,1,474,1.0,1,m,0.6349084998946637,None,,,,,,,,sub-040,COM3,46.4,2024-06-07_13h25.12.868,2024_RDpaindiscrimination_QUEST,2023.2.3,60.03038734789867,2024-06-07 13h25.30.772696 -0400,
10,0,10,0,236.88521880004555,,,,236.86967290006578,241.86880649998784,241.86881250003353,241.88531540008262,249.86873310012743,249.86873310012743,252.08543949993327,252.86884300014935,252.86884300014935,252.85227379994467,3.4,5.4,340,540,8,3,1.2,0.75,464,2,474,1.0,1,m,0.5036901999264956,None,,,,,,,,sub-040,COM3,46.4,2024-06-07_13h25.12.868,2024_RDpaindiscrimination_QUEST,2023.2.3,60.03038734789867,2024-06-07 13h25.30.772696 -0400,
11,0,11,0,252.86884300014935,,,,252.8531957999803,257.8523552999832,257.85236140014604,257.868784799939,265.8522630999796,265.8522630999796,268.0689143000636,268.8522570999339,268.8522570999339,268.8357724000234,3.96,4.84,396,484,8,3,1.2,0.75,464,3,473,0.9,1,m,1.3557755998335779,None,,,,,,,,sub-040,COM3,46.4,2024-06-07_13h25.12.868,2024_RDpaindiscrimination_QUEST,2023.2.3,60.03038734789867,2024-06-07 13h25.30.772696 -0400,
12,0,12,0,268.8522570999339,,,,268.83670450001955,273.83579739998095,273.83580360002816,273.8523178000469,281.8357214999851,281.8357214999851,284.0524151001591,284.8357598001603,284.8357598001603,284.81931960000657,3.99,4.81,399,480,8,3,1.2,0.75,464,0,473,0.9,1,m,0.6124786001164466,None,,,,,,,,sub-040,COM3,46.4,2024-06-07_13h25.12.868,2024_RDpaindiscrimination_QUEST,2023.2.3,60.03038734789867,2024-06-07 13h25.30.772696 -0400,
13,0,13,0,284.8357598001603,,,,284.8202561000362,289.8192986000795,289.81930440012366,289.835802000016,297.819218599936,297.819218599936,300.03591420012526,300.81923500006087,300.81923500006087,300.80277130007744,3.74,5.06,374,505,8,3,1.2,0.75,464,1,472,0.8,0,n,0.5730841001495719,None,,,,,,,,sub-040,COM3,46.4,2024-06-07_13h25.12.868,2024_RDpaindiscrimination_QUEST,2023.2.3,60.03038734789867,2024-06-07 13h25.30.772696 -0400,
14,0,14,0,300.81923500006087,,,,300.80368499993347,305.8027629000135,305.80276919994503,305.81931030005217,313.80277179996483,313.80277179996483,316.0194161001127,316.8027087999508,316.8027087999508,316.786309099989,3.57,5.23,357,523,8,3,1.2,0.75,464,2,473,0.9,1,m,0.392910199938342,None,,,,,,,,sub-040,COM3,46.4,2024-06-07_13h25.12.868,2024_RDpaindiscrimination_QUEST,2023.2.3,60.03038734789867,2024-06-07 13h25.30.772696 -0400,
15,0,15,0,316.8027087999508,,,,316.78726790007204,321.78630440006964,321.7863109000027,321.80281989998184,329.78624720009975,329.78624720009975,332.0029168999754,332.78625060012564,332.78625060012564,332.7698059999384,4.68,4.12,468,412,8,3,1.2,0.75,464,3,473,0.9,1,m,0.8700633000116795,None,,,,,,,,sub-040,COM3,46.4,2024-06-07_13h25.12.868,2024_RDpaindiscrimination_QUEST,2023.2.3,60.03038734789867,2024-06-07 13h25.30.772696 -0400,
16,0,16,0,332.78625060012564,,,,332.7707214001566,337.7699243000243,337.7699299000669,337.7863096999936,345.7697205999866,345.7697205999866,347.98640970001,348.7697549001314,348.7697549001314,348.7532228000928,3.68,5.12,368,512,8,3,1.2,0.75,464,0,472,0.8,0,n,0.782470399979502,None,,,,,,,,sub-040,COM3,46.4,2024-06-07_13h25.12.868,2024_RDpaindiscrimination_QUEST,2023.2.3,60.03038734789867,2024-06-07 13h25.30.772696 -0400,
17,0,17,0,348.7697549001314,,,,348.7541732999962,353.75329659995623,353.7533026000019,353.76980919996276,361.753258400131,361.753258400131,363.9699476000387,364.7532961999532,364.7532961999532,364.7368262000382,3.32,5.48,332,548,8,3,1.2,0.75,464,1,473,0.9,1,m,1.498781100148335,None,,,,,,,,sub-040,COM3,46.4,2024-06-07_13h25.12.868,2024_RDpaindiscrimination_QUEST,2023.2.3,60.03038734789867,2024-06-07 13h25.30.772696 -0400,
18,0,18,0,364.7532961999532,,,,364.73774529993534,369.7368149999529,369.73682059999555,369.75333019997925,377.7533599999733,377.7533599999733,379.95337150013074,380.75337760010734,380.75337760010734,380.73689700011164,3.61,5.19,361,519,8,3,1.2,0.75,464,2,473,0.9,0,n,0.6428930999245495,None,,,,,,,,sub-040,COM3,46.4,2024-06-07_13h25.12.868,2024_RDpaindiscrimination_QUEST,2023.2.3,60.03038734789867,2024-06-07 13h25.30.772696 -0400,
19,0,19,0,380.75337760010734,,,,380.7378313001245,385.73696599993855,385.7369723999873,385.75343449995853,393.7368743000552,393.7368743000552,395.9536230999511,396.7369618001394,396.7369618001394,396.7205350000877,3.83,4.97,383,497,8,3,1.2,0.75,464,3,474,1.0,1,m,0.6029075998812914,None,,,,,,,,sub-040,COM3,46.4,2024-06-07_13h25.12.868,2024_RDpaindiscrimination_QUEST,2023.2.3,60.03038734789867,2024-06-07 13h25.30.772696 -0400,
20,0,20,0,396.7369618001394,,,,396.7214671000838,401.72058840002865,401.7205948999617,401.7369421001058,409.7204704999458,409.7204704999458,411.93708200007677,412.72042410005815,412.72042410005815,412.7039362001233,4.73,4.07,473,407,8,3,1.2,0.75,464,0,474,1.0,1,m,0.46749199996702373,None,,,,,,,,sub-040,COM3,46.4,2024-06-07_13h25.12.868,2024_RDpaindiscrimination_QUEST,2023.2.3,60.03038734789867,2024-06-07 13h25.30.772696 -0400,
21,0,21,0,412.72042410005815,,,,412.7048979999963,417.70406950009055,417.7040758000221,417.72047689999454,425.7038853999693,425.7038853999693,427.92050290014595,428.70384470000863,428.70384470000863,428.6873665000312,3.76,5.04,376,504,8,3,1.2,0.75,464,1,473,0.9,1,m,0.5204911998007447,None,,,,,,,,sub-040,COM3,46.4,2024-06-07_13h25.12.868,2024_RDpaindiscrimination_QUEST,2023.2.3,60.03038734789867,2024-06-07 13h25.30.772696 -0400,
22,0,22,0,428.70384470000863,,,,428.6883543001022,433.6874563000165,433.6874623999465,433.70396660012193,441.68734179995954,441.68734179995954,443.9040735999588,444.6874174999539,444.6874174999539,444.6709314000327,3.33,5.47,333,547,8,3,1.2,0.75,464,2,473,0.9,1,m,0.7166415001265705,None,,,,,,,,sub-040,COM3,46.4,2024-06-07_13h25.12.868,2024_RDpaindiscrimination_QUEST,2023.2.3,60.03038734789867,2024-06-07 13h25.30.772696 -0400,
23,0,23,0,444.6874174999539,,,,444.67185569996946,449.67091240012087,449.67091879993677,449.68744840007275,457.67081440007314,457.67081440007314,459.88756960001774,460.67092900001444,460.67092900001444,460.65444170008413,3.8,5.0,380,500,8,3,1.2,0.75,464,3,472,0.8,0,n,0.628842500038445,None,,,,,,,,sub-040,COM3,46.4,2024-06-07_13h25.12.868,2024_RDpaindiscrimination_QUEST,2023.2.3,60.03038734789867,2024-06-07 13h25.30.772696 -0400,
24,0,24,0,460.67092900001444,,,,460.6553766001016,465.6544617000036,465.65446799993515,465.6709614000283,473.65431899996474,473.65431899996474,475.8710088999942,476.6543395000044,476.6543395000044,476.6378641000483,3.49,5.31,349,531,8,3,1.2,0.75,464,0,473,0.9,1,m,0.4498055998701602,None,,,,,,,,sub-040,COM3,46.4,2024-06-07_13h25.12.868,2024_RDpaindiscrimination_QUEST,2023.2.3,60.03038734789867,2024-06-07 13h25.30.772696 -0400,
25,0,25,0,476.6543395000044,,,,476.6387609001249,481.63795759994537,481.63796370010823,481.654463800136,489.6378890001215,489.6378890001215,491.85461040004157,492.6379027001094,492.6379027001094,492.6214374001138,3.89,4.91,389,491,8,3,1.2,0.75,464,1,473,0.9,1,m,0.4575078000780195,None,,,,,,,,sub-040,COM3,46.4,2024-06-07_13h25.12.868,2024_RDpaindiscrimination_QUEST,2023.2.3,60.03038734789867,2024-06-07 13h25.30.772696 -0400,
26,0,26,0,492.6379027001094,,,,492.62238910002634,497.6214725000318,497.6214789999649,497.6379446000792,505.6214014000725,505.6214014000725,507.8380982000381,508.62144530005753,508.62144530005753,508.60493230004795,3.77,5.03,377,503,8,3,1.2,0.75,464,2,472,0.8,0,n,1.3588364999741316,None,,,,,,,,sub-040,COM3,46.4,2024-06-07_13h25.12.868,2024_RDpaindiscrimination_QUEST,2023.2.3,60.03038734789867,2024-06-07 13h25.30.772696 -0400,
27,0,27,0,508.62144530005753,,,,508.6059508000035,513.6049268001225,513.604933100054,513.6214131000452,521.6214966999833,521.6214966999833,523.821518199984,524.621547000017,524.621547000017,524.6050321999937,3.91,4.89,391,488,8,3,1.2,0.75,464,3,473,0.9,1,m,0.2664262999314815,None,,,,,,,,sub-040,COM3,46.4,2024-06-07_13h25.12.868,2024_RDpaindiscrimination_QUEST,2023.2.3,60.03038734789867,2024-06-07 13h25.30.772696 -0400,
28,0,28,0,524.621547000017,,,,524.6059459000826,529.6051328000613,529.6051388001069,529.6216931000818,537.6050993001554,537.6050993001554,539.8216750000138,540.605025799945,540.605025799945,540.5885873001534,4.15,4.65,415,465,8,3,1.2,0.75,464,0,473,0.9,1,m,0.45831919996999204,None,,,,,,,,sub-040,COM3,46.4,2024-06-07_13h25.12.868,2024_RDpaindiscrimination_QUEST,2023.2.3,60.03038734789867,2024-06-07 13h25.30.772696 -0400,
29,0,29,0,540.605025799945,,,,540.589484800119,545.5886593000032,545.5886697999667,545.6051891001407,553.5886139001232,553.5886139001232,555.8051839000545,556.5885258000344,556.5885258000344,556.5720474000555,4.07,4.73,407,473,8,3,1.2,0.75,464,1,472,0.8,1,m,0.6068251000251621,None,,,,,,,,sub-040,COM3,46.4,2024-06-07_13h25.12.868,2024_RDpaindiscrimination_QUEST,2023.2.3,60.03038734789867,2024-06-07 13h25.30.772696 -0400,
30,0,30,0,556.5885258000344,,,,556.5729559001047,561.572174699977,561.5721810001414,561.5886737001128,569.5721118999645,569.5721118999645,571.7887143001426,572.5720691001043,572.5720691001043,572.5556171000935,3.48,5.32,348,532,8,3,1.2,0.75,464,2,472,0.8,0,n,0.9438378000631928,None,,,,,,,,sub-040,COM3,46.4,2024-06-07_13h25.12.868,2024_RDpaindiscrimination_QUEST,2023.2.3,60.03038734789867,2024-06-07 13h25.30.772696 -0400,
31,0,31,0,572.5720691001043,,,,572.5565538001247,577.5555533999577,577.5555596000049,577.5721726000775,585.5554827000014,585.5554827000014,587.7722316000145,588.5556109999306,588.5556109999306,588.5390856999438,3.53,5.27,353,527,8,3,1.2,0.75,464,3,473,0.9,1,m,0.7163617999758571,None,,,,,,,,sub-040,COM3,46.4,2024-06-07_13h25.12.868,2024_RDpaindiscrimination_QUEST,2023.2.3,60.03038734789867,2024-06-07 13h25.30.772696 -0400,
32,0,32,0,588.5556109999306,,,,588.5400459000375,593.539087699959,593.5390989000443,593.5556666001212,601.5390955000184,601.5390955000184,603.7557310000993,604.5391408000141,604.5391408000141,604.5225852001458,4.03,4.77,403,476,8,3,1.2,0.75,464,0,473,0.9,1,m,0.580321199959144,None,,,,,,,,sub-040,COM3,46.4,2024-06-07_13h25.12.868,2024_RDpaindiscrimination_QUEST,2023.2.3,60.03038734789867,2024-06-07 13h25.30.772696 -0400,
,,,,,,,,,,,,,,,,,,,,,,,,,,,,,,,,,,604.5234008000698,604.5391408000141,610.5892028000671,610.5226750001311,0.8500000000000001,47.25,0.8785462848460782,,,,,,,,,
