trials.thisRepN,trials.thisTrialN,trials.thisN,trials.thisIndex,loop_test.thisRepN,loop_test.thisTrialN,loop_test.thisN,loop_test.thisIndex,loop_eval_discri.thisRepN,loop_eval_discri.thisTrialN,loop_eval_discri.thisN,loop_eval_discri.thisIndex,loop_eval.thisRepN,loop_eval.thisTrialN,loop_eval.thisN,loop_eval.thisIndex,loop_discri.thisRepN,loop_discri.thisTrialN,loop_discri.thisN,loop_discri.thisIndex,thisRow.t,notes,Set_up.started,Set_up.stopped,electrode_check.started,electrode_check.stopped,instructions_eval.started,instructions_eval.stopped,pause_5_test.started,pause_5_test.stopped,Phase_Test.started,thermode_locali.started,thermode_locali.stopped,Phase_Test.stopped,loca_thermode,condition,temp_trial_sent,eval_douleur.started,eval_douleur.stopped,ratingScale.response,ratingScale.rt,Fin_test.started,text.started,Fin_test.stopped,pause_5_EVA.started,pause_5_EVA.stopped,tâche_EVA.started,thermode_locali_EVA.started,thermode_locali_EVA.stopped,tâche_EVA.stopped,instructions_discrim.started,instructions_discrim.stopped,pause_5_pic.started,pause_5_pic.stopped,tâche_PIC.started,thermode_locali_pic.started,percu_or.started,responser.started,thermode_locali_pic.stopped,percu_or.stopped,responser.stopped,tâche_PIC.stopped,dur_plateau1,dur_plateau2,dur_plateau1_sent,dur_plateau2_sent,start_plateau_2_resp,dur_pic,dur_rise,pic_presence,pic_response,discrimin_resp.keys,discrimin_resp.rt,discrimin_resp.duration,break_entre_bloc.started,break_entre_bloc.stopped,merci.started,merci.stopped,participant,temp_flat,temp_active,temp_pic_set,com_thermode,date,expName,psychopyVersion,frameRate,expStart,
0,0,0,0,0,0,0,0,,,,,,,,,,,,,104.05566589999944,,0.0045906000304967165,100.55586209998,100.55620430002455,102.52252710005268,102.52253570000175,104.03921529999934,104.03949490003288,109.0391567000188,109.03916330006905,109.05567310005426,121.07241320004687,121.0396149000153,0,active,46.8,121.0398369000759,125.32322340004612,5.000000000000164,4.26,,,,,,,,,,,,,,,,,,,,,,,,,,,,,,,,,,,,,,sub-028,47.9,46.8,48.7,COM3,2024-02-20_15h14.50.926,2024_RDpaindiscrimination_maintask,2023.2.3,60.00128402328517,2024-02-20 15h15.16.626970 -0500,
0,0,0,0,1,0,1,0,,,,,,,,,,,,,125.3391258000629,,,,,,,,125.32349270000122,130.32281430007424,130.32282020000275,130.3392206999706,142.35609240003396,142.3231903000269,1,active,46.8,142.32333360007033,145.4910641000606,7.499999999999989,3.148,,,,,,,,,,,,,,,,,,,,,,,,,,,,,,,,,,,,,,sub-028,47.9,46.8,48.7,COM3,2024-02-20_15h14.50.926,2024_RDpaindiscrimination_maintask,2023.2.3,60.00128402328517,2024-02-20 15h15.16.626970 -0500,
0,0,0,0,2,0,2,0,,,,,,,,,,,,,145.50611980003305,,,,,,,,145.49193410004955,150.48970260005444,150.4897083999822,150.50612180004828,162.52294280007482,162.49014820007142,2,inactive,47.9,162.49029450002126,165.99158480006736,20.500000000000178,3.482,,,,,,,,,,,,,,,,,,,,,,,,,,,,,,,,,,,,,,sub-028,47.9,46.8,48.7,COM3,2024-02-20_15h14.50.926,2024_RDpaindiscrimination_maintask,2023.2.3,60.00128402328517,2024-02-20 15h15.16.626970 -0500,
0,0,0,0,3,0,3,0,,,,,,,,,,,,,166.0062031999696,,,,,,,,165.99238990002777,170.98985859996174,170.98986460000742,171.00635619997047,183.02306170004886,182.99027269997168,3,active,46.8,182.9904225000646,187.42436820000876,4.0000000000002,4.415,,,,,,,,,,,,,,,,,,,,,,,,,,,,,,,,,,,,,,sub-028,47.9,46.8,48.7,COM3,2024-02-20_15h14.50.926,2024_RDpaindiscrimination_maintask,2023.2.3,60.00128402328517,2024-02-20 15h15.16.626970 -0500,
0,0,0,0,4,0,4,0,,,,,,,,,,,,,187.43973600002937,,,,,,,,187.42463140003383,192.42334990005475,192.4233556999825,192.4398759000469,204.45659880002495,204.42372399999294,0,inactive,47.9,204.42387020005845,206.1587115000002,30.0,1.715,,,,,,,,,,,,,,,,,,,,,,,,,,,,,,,,,,,,,,sub-028,47.9,46.8,48.7,COM3,2024-02-20_15h14.50.926,2024_RDpaindiscrimination_maintask,2023.2.3,60.00128402328517,2024-02-20 15h15.16.626970 -0500,
0,0,0,0,5,0,5,0,,,,,,,,,,,,,206.17334099998698,,,,,,,,206.1589607000351,211.15688969998155,211.15689570002723,211.17334910004865,223.19017129996791,223.15731020004023,1,inactive,47.9,223.157450000057,228.2757152999984,13.500000000000075,5.099,,,,,,,,,,,,,,,,,,,,,,,,,,,,,,,,,,,,,,sub-028,47.9,46.8,48.7,COM3,2024-02-20_15h14.50.926,2024_RDpaindiscrimination_maintask,2023.2.3,60.00128402328517,2024-02-20 15h15.16.626970 -0500,
0,0,0,0,6,0,6,0,,,,,,,,,,,,,228.29022409999743,,,,,,,,228.2764785999898,233.27377600001637,233.27378170005977,233.290274900035,245.30701520002913,245.27419370005373,2,active,46.8,245.27433469996322,248.44301719998475,5.500000000000094,3.15,,,,,,,,,,,,,,,,,,,,,,,,,,,,,,,,,,,,,,sub-028,47.9,46.8,48.7,COM3,2024-02-20_15h14.50.926,2024_RDpaindiscrimination_maintask,2023.2.3,60.00128402328517,2024-02-20 15h15.16.626970 -0500,
0,0,0,0,7,0,7,0,,,,,,,,,,,,,248.45705880003516,,,,,,,,248.44382649997715,253.44065270002466,253.44065870007034,253.45710980007425,265.4739356000209,265.44107309996616,3,inactive,47.9,265.44121359998826,267.74208990007173,44.499999999999986,2.282,,,,,,,,,,,,,,,,,,,,,,,,,,,,,,,,,,,,,,sub-028,47.9,46.8,48.7,COM3,2024-02-20_15h14.50.926,2024_RDpaindiscrimination_maintask,2023.2.3,60.00128402328517,2024-02-20 15h15.16.626970 -0500,
0,0,0,0,8,0,8,0,,,,,,,,,,,,,267.757260399987,,,,,,,,267.7428270999808,272.7408844999736,272.7408910000231,272.7572821000358,284.7741311000427,284.74254000000656,0,inactive,47.9,284.74268030002713,289.5425198000157,44.99999999999992,4.78,,,,,,,,,,,,,,,,,,,,,,,,,,,,,,,,,,,,,,sub-028,47.9,46.8,48.7,COM3,2024-02-20_15h14.50.926,2024_RDpaindiscrimination_maintask,2023.2.3,60.00128402328517,2024-02-20 15h15.16.626970 -0500,
0,0,0,0,9,0,9,0,,,,,,,,,,,,,289.5575106999604,,,,,,,,289.5432947999798,294.5410576000577,294.54106399999,294.5575308999978,306.57435520004947,306.54150040005334,1,active,46.8,306.5416487000184,309.3429141000379,10.000000000000027,2.783,,,,,,,,,,,,,,,,,,,,,,,,,,,,,,,,,,,,,,sub-028,47.9,46.8,48.7,COM3,2024-02-20_15h14.50.926,2024_RDpaindiscrimination_maintask,2023.2.3,60.00128402328517,2024-02-20 15h15.16.626970 -0500,
0,0,0,0,10,0,10,0,,,,,,,,,,,,,309.35770689998753,,,,,,,,309.34375010000076,314.3412663000636,314.3412737000035,314.3577241000021,326.37453110003844,326.3417466999963,2,inactive,47.9,326.34188730001915,331.7273134000134,17.500000000000078,5.367,,,,,,,,,,,,,,,,,,,,,,,,,,,,,,,,,,,,,,sub-028,47.9,46.8,48.7,COM3,2024-02-20_15h14.50.926,2024_RDpaindiscrimination_maintask,2023.2.3,60.00128402328517,2024-02-20 15h15.16.626970 -0500,
0,0,0,0,11,0,11,0,,,,,,,,,,,,,331.74130300001707,,,,,,,,331.72811600007117,336.7249371999642,336.72494280000683,336.74129430006724,348.7581756999716,348.72529179998673,3,active,46.8,348.72543230000883,352.44414400006644,15.500000000000103,3.7,,,,,,,,,,,,,,,,,,,,,,,,,,,,,,,,,,,,,,sub-028,47.9,46.8,48.7,COM3,2024-02-20_15h14.50.926,2024_RDpaindiscrimination_maintask,2023.2.3,60.00128402328517,2024-02-20 15h15.16.626970 -0500,
0,0,0,0,12,0,12,0,,,,,,,,,,,,,352.45818429999053,,,,,,,,352.4449114999734,357.4418217999628,357.44182710000314,357.45819719997235,369.4750207000179,369.44210360001307,0,active,46.8,369.4422543999972,372.32637100003194,12.500000000000028,2.865,,,,,,,,,,,,,,,,,,,,,,,,,,,,,,,,,,,,,,sub-028,47.9,46.8,48.7,COM3,2024-02-20_15h14.50.926,2024_RDpaindiscrimination_maintask,2023.2.3,60.00128402328517,2024-02-20 15h15.16.626970 -0500,
0,0,0,0,13,0,13,0,,,,,,,,,,,,,372.341729399981,,,,,,,,372.3271028000163,377.3251902000047,377.3251965000527,377.34169270005077,389.35847300000023,389.325612799963,1,inactive,47.9,389.3257542999927,393.494416099973,32.000000000000064,4.15,,,,,,,,,,,,,,,,,,,,,,,,,,,,,,,,,,,,,,sub-028,47.9,46.8,48.7,COM3,2024-02-20_15h14.50.926,2024_RDpaindiscrimination_maintask,2023.2.3,60.00128402328517,2024-02-20 15h15.16.626970 -0500,
0,0,0,0,14,0,14,0,,,,,,,,,,,,,393.50856320001185,,,,,,,,393.4952272999799,398.49211160000414,398.4921177000506,398.5086096000159,410.52540370007046,410.4925379999913,2,active,46.8,410.4926809000317,413.61022530007176,4.000000000000022,3.098,,,,,,,,,,,,,,,,,,,,,,,,,,,,,,,,,,,,,,sub-028,47.9,46.8,48.7,COM3,2024-02-20_15h14.50.926,2024_RDpaindiscrimination_maintask,2023.2.3,60.00128402328517,2024-02-20 15h15.16.626970 -0500,
0,0,0,0,15,0,15,0,,,,,,,,,,,,,413.6254720999859,,,,,,,,413.6109929999802,418.6089791000122,418.6089849000564,418.62543120002374,430.6422002000036,430.6094028999796,3,inactive,47.9,430.6095452000154,435.49550039996393,50.49999999999983,4.867,,,,,,,,,,,,,,,,,,,,,,,,,,,,,,,,,,,,,,sub-028,47.9,46.8,48.7,COM3,2024-02-20_15h14.50.926,2024_RDpaindiscrimination_maintask,2023.2.3,60.00128402328517,2024-02-20 15h15.16.626970 -0500,
0,0,0,0,,,,,0,0,0,0,0,0,0,0,,,,,445.9257512000622,,,,,,444.459702800028,445.9093247000128,,,,,,,0,active,47.9,462.90975150000304,465.21120440005325,30.99999999999996,2.282,435.49610029999167,435.5090460999636,444.45936330000404,445.90960350004025,450.90929820004385,450.90930489997845,450.9258100000443,462.9425940000219,462.909743300057,,,,,,,,,,,,,,,,,,,,,,,,,,,,,sub-028,47.9,46.8,48.7,COM3,2024-02-20_15h14.50.926,2024_RDpaindiscrimination_maintask,2023.2.3,60.00128402328517,2024-02-20 15h15.16.626970 -0500,
0,0,0,0,,,,,0,0,0,0,1,0,1,0,,,,,465.2259352999972,,,,,,,,,,,,,,1,inactive,47.9,482.2099253999768,487.2117324999999,14.500000000000075,4.983,,,,465.2114488000516,470.2095313000027,470.2095376000507,470.2260609000223,482.24283030000515,482.2099160000216,,,,,,,,,,,,,,,,,,,,,,,,,,,,,sub-028,47.9,46.8,48.7,COM3,2024-02-20_15h14.50.926,2024_RDpaindiscrimination_maintask,2023.2.3,60.00128402328517,2024-02-20 15h15.16.626970 -0500,
0,0,0,0,,,,,0,0,0,0,,,,,0,0,0,0,492.0095666999696,,,,,,,,,,,,,,2,inactive,,,,,,,,,,,,,,,487.2122636999702,491.9931885000551,491.9934892000165,496.99315550003666,496.9931626999751,497.0096401000628,504.9930527000688,504.9930527000688,507.9597655000398,507.99309710005764,507.99309710005764,507.9766479000682,4.39,4.41,438,441,8,1.2,0.75,pic-absent,1,m,1.6708217000123113,None,,,,,sub-028,47.9,46.8,48.7,COM3,2024-02-20_15h14.50.926,2024_RDpaindiscrimination_maintask,2023.2.3,60.00128402328517,2024-02-20 15h15.16.626970 -0500,
0,0,0,0,,,,,0,0,0,0,,,,,1,0,1,0,507.99309710005764,,,,,,,,,,,,,,3,active,,,,,,,,,,,,,,,,,507.97730130003765,512.9766367999837,512.97664420004,512.9931107000448,520.9765665000305,520.9765665000305,523.9432620999869,523.9765886999667,523.9765886999667,523.960119400057,3.62,5.18,362,518,8,1.2,0.75,pic-absent,0,n,0.3673481000587344,None,,,,,sub-028,47.9,46.8,48.7,COM3,2024-02-20_15h14.50.926,2024_RDpaindiscrimination_maintask,2023.2.3,60.00128402328517,2024-02-20 15h15.16.626970 -0500,
0,0,0,0,,,,,0,0,0,0,,,,,2,0,2,0,523.9765886999667,,,,,,,,,,,,,,0,inactive,,,,,,,,,,,,,,,,,523.9605759000406,528.9601530999644,528.9601607000222,528.976620499976,536.9601083999733,536.9601083999733,539.9267638999736,539.960096099996,539.960096099996,539.9435647999635,4.44,4.36,444,436,8,1.2,0.75,pic-present,1,m,0.3270704000024125,None,,,,,sub-028,47.9,46.8,48.7,COM3,2024-02-20_15h14.50.926,2024_RDpaindiscrimination_maintask,2023.2.3,60.00128402328517,2024-02-20 15h15.16.626970 -0500,
0,0,0,0,,,,,0,0,0,0,,,,,3,0,3,0,539.960096099996,,,,,,,,,,,,,,1,inactive,,,,,,,,,,,,,,,,,539.9440221000696,544.9435578000266,544.9435651999665,544.9601371000754,552.9435571000213,552.9435571000213,555.9102982999757,555.9435853000032,555.9435853000032,555.927057199995,4.72,4.08,472,408,8,1.2,0.75,pic-present,1,m,0.5681324999313802,None,,,,,sub-028,47.9,46.8,48.7,COM3,2024-02-20_15h14.50.926,2024_RDpaindiscrimination_maintask,2023.2.3,60.00128402328517,2024-02-20 15h15.16.626970 -0500,
0,0,0,0,,,,,1,0,1,0,0,0,0,0,,,,,556.2769712000154,,,,,,555.9275550000602,556.2607045000186,,,,,,,2,inactive,47.9,573.2607851000503,576.0620395999867,30.500000000000142,2.782,,,,556.2610068999929,561.2604815000668,561.2604879999999,561.2769784000702,573.2937689999817,573.2607768999878,,,,,,,,,,,,,,,,,,,,,,,,,,,,,sub-028,47.9,46.8,48.7,COM3,2024-02-20_15h14.50.926,2024_RDpaindiscrimination_maintask,2023.2.3,60.00128402328517,2024-02-20 15h15.16.626970 -0500,
0,0,0,0,,,,,1,0,1,0,1,0,1,0,,,,,576.0771404000698,,,,,,,,,,,,,,3,active,47.9,593.0610396000557,595.646188499988,32.49999999999996,2.509,,,,576.0627902999986,581.0605990999611,581.0606054000091,581.0771082000574,593.1438998000231,593.061031899997,,,,,,,,,,,,,,,,,,,,,,,,,,,,,sub-028,47.9,46.8,48.7,COM3,2024-02-20_15h14.50.926,2024_RDpaindiscrimination_maintask,2023.2.3,60.00128402328517,2024-02-20 15h15.16.626970 -0500,
0,0,0,0,,,,,1,0,1,0,,,,,0,0,0,0,598.6606984999962,,,,,,,,,,,,,,0,active,,,,,,,,,,,,,,,595.6464979000157,598.6443063999759,598.6446199000347,603.6442417000653,603.6442485000007,603.6607469000155,611.6440892000683,611.6440892000683,614.6108079999685,614.644123999984,614.644123999984,614.6276435999898,4.49,4.31,449,430,8,1.2,0.75,pic-absent,0,n,0.39957510004751384,None,,,,,sub-028,47.9,46.8,48.7,COM3,2024-02-20_15h14.50.926,2024_RDpaindiscrimination_maintask,2023.2.3,60.00128402328517,2024-02-20 15h15.16.626970 -0500,
0,0,0,0,,,,,1,0,1,0,,,,,1,0,1,0,614.644123999984,,,,,,,,,,,,,,1,inactive,,,,,,,,,,,,,,,,,614.6281875000568,619.6276986000594,619.6277055999963,619.6442401000531,627.6276177000254,627.6276177000254,630.5943307999987,630.6276241000742,630.6276241000742,630.6111985000316,4.35,4.45,434,445,8,1.2,0.75,pic-present,1,m,0.45532739988993853,None,,,,,sub-028,47.9,46.8,48.7,COM3,2024-02-20_15h14.50.926,2024_RDpaindiscrimination_maintask,2023.2.3,60.00128402328517,2024-02-20 15h15.16.626970 -0500,
0,0,0,0,,,,,1,0,1,0,,,,,2,0,2,0,630.6276241000742,,,,,,,,,,,,,,2,inactive,,,,,,,,,,,,,,,,,630.6116446000524,635.6111661000177,635.6111729000695,635.6277379000094,643.6111197000137,643.6111197000137,646.5778644999955,646.6111528000329,646.6111528000329,646.5947156000184,4.71,4.09,471,409,8,1.2,0.75,pic-absent,0,n,1.0278294999152422,None,,,,,sub-028,47.9,46.8,48.7,COM3,2024-02-20_15h14.50.926,2024_RDpaindiscrimination_maintask,2023.2.3,60.00128402328517,2024-02-20 15h15.16.626970 -0500,
0,0,0,0,,,,,1,0,1,0,,,,,3,0,3,0,646.6111528000329,,,,,,,,,,,,,,3,active,,,,,,,,,,,,,,,,,646.5951698999852,651.5947096999735,651.5947171000298,651.6111914999783,659.5946687000105,659.5946687000105,662.5612890999764,662.5946775999619,662.5946775999619,662.5781630000565,4.25,4.55,425,455,8,1.2,0.75,pic-absent,0,n,0.4283175999298692,None,,,,,sub-028,47.9,46.8,48.7,COM3,2024-02-20_15h14.50.926,2024_RDpaindiscrimination_maintask,2023.2.3,60.00128402328517,2024-02-20 15h15.16.626970 -0500,
0,0,0,0,,,,,2,0,2,0,0,0,0,0,,,,,663.7780229999917,,,,,,662.5786795000313,663.7616113000549,,,,,,,0,active,47.9,680.7619452000363,684.0137159000151,55.49999999999996,3.233,,,,663.7619102000026,668.7615624000318,668.7615687999642,668.7779859000584,680.7948898000177,680.7619372999761,,,,,,,,,,,,,,,,,,,,,,,,,,,,,sub-028,47.9,46.8,48.7,COM3,2024-02-20_15h14.50.926,2024_RDpaindiscrimination_maintask,2023.2.3,60.00128402328517,2024-02-20 15h15.16.626970 -0500,
0,0,0,0,,,,,2,0,2,0,1,0,1,0,,,,,684.0282852000091,,,,,,,,,,,,,,1,inactive,47.9,701.0122114999685,704.1647805999964,61.49999999999993,3.133,,,,684.0144970000256,689.011763800052,689.0117707999889,689.0282324000727,701.0450710000005,701.0122037000256,,,,,,,,,,,,,,,,,,,,,,,,,,,,,sub-028,47.9,46.8,48.7,COM3,2024-02-20_15h14.50.926,2024_RDpaindiscrimination_maintask,2023.2.3,60.00128402328517,2024-02-20 15h15.16.626970 -0500,
0,0,0,0,,,,,2,0,2,0,,,,,0,0,0,0,705.7285003999714,,,,,,,,,,,,,,2,active,,,,,,,,,,,,,,,704.1652787000639,705.7121446999954,705.7124714000383,710.7120948999655,710.7121038000332,710.7285431000637,718.7118633000646,718.7118633000646,721.6786198000191,721.7119641000172,721.7119641000172,721.6954655000009,4.12,4.68,412,468,8,1.2,0.75,pic-present,1,m,0.49607079999987036,None,,,,,sub-028,47.9,46.8,48.7,COM3,2024-02-20_15h14.50.926,2024_RDpaindiscrimination_maintask,2023.2.3,60.00128402328517,2024-02-20 15h15.16.626970 -0500,
0,0,0,0,,,,,2,0,2,0,,,,,1,0,1,0,721.7119641000172,,,,,,,,,,,,,,3,inactive,,,,,,,,,,,,,,,,,721.696020500036,726.6955062999623,726.6955137000186,726.7119662000332,734.6954234000295,734.6954234000295,737.6621690000175,737.6954445000738,737.6954445000738,737.6789601000492,4.05,4.75,405,475,8,1.2,0.75,pic-absent,1,m,0.36354510008823127,None,,,,,sub-028,47.9,46.8,48.7,COM3,2024-02-20_15h14.50.926,2024_RDpaindiscrimination_maintask,2023.2.3,60.00128402328517,2024-02-20 15h15.16.626970 -0500,
0,0,0,0,,,,,2,0,2,0,,,,,2,0,2,0,737.6954445000738,,,,,,,,,,,,,,0,active,,,,,,,,,,,,,,,,,737.6794042000547,742.6790272999788,742.6790340000298,742.6954871000489,750.6789110000245,750.6789110000245,753.645650099963,753.6790871999692,753.6790871999692,753.6624788000481,4.57,4.23,457,423,8,1.2,0.75,pic-present,1,m,0.32855159998871386,None,,,,,sub-028,47.9,46.8,48.7,COM3,2024-02-20_15h14.50.926,2024_RDpaindiscrimination_maintask,2023.2.3,60.00128402328517,2024-02-20 15h15.16.626970 -0500,
0,0,0,0,,,,,2,0,2,0,,,,,3,0,3,0,753.6790871999692,,,,,,,,,,,,,,1,inactive,,,,,,,,,,,,,,,,,753.6629531000508,758.6625268000644,758.6625353000127,758.6789976999862,766.6624644000549,766.6624644000549,769.6290784999728,769.6623971000081,769.6623971000081,769.6459210000467,3.75,5.05,375,505,8,1.2,0.75,pic-absent,0,n,0.5287487000459805,None,,,,,sub-028,47.9,46.8,48.7,COM3,2024-02-20_15h14.50.926,2024_RDpaindiscrimination_maintask,2023.2.3,60.00128402328517,2024-02-20 15h15.16.626970 -0500,
0,0,0,0,,,,,3,0,3,0,0,0,0,0,,,,,770.2624072000617,,,,,,769.646442300058,770.246123900055,,,,,,,2,inactive,47.9,787.2463428999763,791.6155416000402,71.49999999999983,4.35,,,,770.246394900023,775.2460352999624,775.2460421000142,775.2624654000392,787.2792010999983,787.2463346000295,,,,,,,,,,,,,,,,,,,,,,,,,,,,,sub-028,47.9,46.8,48.7,COM3,2024-02-20_15h14.50.926,2024_RDpaindiscrimination_maintask,2023.2.3,60.00128402328517,2024-02-20 15h15.16.626970 -0500,
0,0,0,0,,,,,3,0,3,0,1,0,1,0,,,,,791.6293182000518,,,,,,,,,,,,,,3,active,47.9,808.6131995000178,812.1988544999622,29.00000000000011,3.567,,,,791.6163161000004,796.6128291999921,796.6128360000439,796.6293898000149,808.646138900076,808.6131920999615,,,,,,,,,,,,,,,,,,,,,,,,,,,,,sub-028,47.9,46.8,48.7,COM3,2024-02-20_15h14.50.926,2024_RDpaindiscrimination_maintask,2023.2.3,60.00128402328517,2024-02-20 15h15.16.626970 -0500,
0,0,0,0,,,,,3,0,3,0,,,,,0,0,0,0,813.94624379999,,,,,,,,,,,,,,0,inactive,,,,,,,,,,,,,,,812.1994485000614,813.9299098000629,813.9302393000107,818.9298184000654,818.9298249999993,818.9462616000092,826.9297137999674,826.9297137999674,829.8963050000602,829.9296193000628,829.9296193000628,829.9131421999773,4.05,4.75,405,475,8,1.2,0.75,pic-present,0,n,1.5854530000360683,None,,,,,sub-028,47.9,46.8,48.7,COM3,2024-02-20_15h14.50.926,2024_RDpaindiscrimination_maintask,2023.2.3,60.00128402328517,2024-02-20 15h15.16.626970 -0500,
0,0,0,0,,,,,3,0,3,0,,,,,1,0,1,0,829.9296193000628,,,,,,,,,,,,,,1,active,,,,,,,,,,,,,,,,,829.9136481999885,834.9131665000459,834.9131734999828,834.9296731000068,842.9130874000257,842.9130874000257,845.8798445999855,845.9131194000365,845.9131194000365,845.8966257000575,4.39,4.41,438,441,8,1.2,0.75,pic-present,1,m,0.5619589999550954,None,,,,,sub-028,47.9,46.8,48.7,COM3,2024-02-20_15h14.50.926,2024_RDpaindiscrimination_maintask,2023.2.3,60.00128402328517,2024-02-20 15h15.16.626970 -0500,
0,0,0,0,,,,,3,0,3,0,,,,,2,0,2,0,845.9131194000365,,,,,,,,,,,,,,2,active,,,,,,,,,,,,,,,,,845.8970887999749,850.8966643000022,850.896671500057,850.913196700043,858.8965843999758,858.8965843999758,861.8632820000639,861.8966155999806,861.8966155999806,861.8802210000576,4.22,4.58,422,458,8,1.2,0.75,pic-absent,1,m,0.38261079997755587,None,,,,,sub-028,47.9,46.8,48.7,COM3,2024-02-20_15h14.50.926,2024_RDpaindiscrimination_maintask,2023.2.3,60.00128402328517,2024-02-20 15h15.16.626970 -0500,
0,0,0,0,,,,,3,0,3,0,,,,,3,0,3,0,861.8966155999806,,,,,,,,,,,,,,3,active,,,,,,,,,,,,,,,,,861.880687900004,866.8802502000472,866.8802574999863,866.8966642000014,874.8801185999764,874.8801185999764,877.8468505999772,877.8801466000732,877.8801466000732,877.8637028000085,4.04,4.76,404,476,8,1.2,0.75,pic-present,1,m,0.3903568999376148,None,,,,,sub-028,47.9,46.8,48.7,COM3,2024-02-20_15h14.50.926,2024_RDpaindiscrimination_maintask,2023.2.3,60.00128402328517,2024-02-20 15h15.16.626970 -0500,
1,0,1,0,0,0,0,0,,,,,,,,,,,,,958.8643643000396,,,,941.4813404000597,956.5479013000149,956.5479093000758,958.8479670999805,958.8482707999647,963.8479409000138,963.847947500064,963.864459100063,975.881161199999,975.8483515999978,0,inactive,47.9,975.8485629999777,978.9842049999861,33.50000000000006,3.113,,,,,,,,,,,,,,,,,,,,,,,,,,,,,,,,,,877.8641267999774,941.4812177000567,,,sub-028,47.9,46.8,48.7,COM3,2024-02-20_15h14.50.926,2024_RDpaindiscrimination_maintask,2023.2.3,60.00128402328517,2024-02-20 15h15.16.626970 -0500,
1,0,1,0,1,0,1,0,,,,,,,,,,,,,978.9979977000039,,,,,,,,978.9851190999616,983.9815513000358,983.9815575999673,983.9980167000322,996.0147466000635,995.9819088999648,1,active,46.8,995.9820517000044,999.6843325999798,10.000000000000133,3.684,,,,,,,,,,,,,,,,,,,,,,,,,,,,,,,,,,,,,,sub-028,47.9,46.8,48.7,COM3,2024-02-20_15h14.50.926,2024_RDpaindiscrimination_maintask,2023.2.3,60.00128402328517,2024-02-20 15h15.16.626970 -0500,
1,0,1,0,2,0,2,0,,,,,,,,,,,,,999.698116100044,,,,,,,,999.6851062000496,1004.6816606000066,1004.6816665000515,1004.6981717000017,1016.7149503000546,1016.6821071000304,2,inactive,47.9,1016.682249500067,1019.9839508000296,47.9999999999999,3.283,,,,,,,,,,,,,,,,,,,,,,,,,,,,,,,,,,,,,,sub-028,47.9,46.8,48.7,COM3,2024-02-20_15h14.50.926,2024_RDpaindiscrimination_maintask,2023.2.3,60.00128402328517,2024-02-20 15h15.16.626970 -0500,
1,0,1,0,3,0,3,0,,,,,,,,,,,,,1019.9984387999866,,,,,,,,1019.984777500038,1024.9819387000753,1024.981944500003,1024.998384000035,1037.015259900014,1036.9823521999642,3,inactive,47.9,1036.982497000019,1040.4505645000609,37.49999999999994,3.448,,,,,,,,,,,,,,,,,,,,,,,,,,,,,,,,,,,,,,sub-028,47.9,46.8,48.7,COM3,2024-02-20_15h14.50.926,2024_RDpaindiscrimination_maintask,2023.2.3,60.00128402328517,2024-02-20 15h15.16.626970 -0500,
1,0,1,0,4,0,4,0,,,,,,,,,,,,,1040.4652057000203,,,,,,,,1040.45138340001,1045.4487533000065,1045.4487593000522,1045.465219500009,1057.4821121999994,1057.4491810000036,0,active,46.8,1057.4493240000447,1060.0341694999952,14.000000000000066,2.566,,,,,,,,,,,,,,,,,,,,,,,,,,,,,,,,,,,,,,sub-028,47.9,46.8,48.7,COM3,2024-02-20_15h14.50.926,2024_RDpaindiscrimination_maintask,2023.2.3,60.00128402328517,2024-02-20 15h15.16.626970 -0500,
1,0,1,0,5,0,5,0,,,,,,,,,,,,,1060.0488170000026,,,,,,,,1060.0349791999906,1065.0322857999709,1065.0322923000203,1065.0488012999995,1077.0655776000349,1077.0327246000525,1,active,46.8,1077.0328698999947,1081.3355227999855,10.000000000000169,4.284,,,,,,,,,,,,,,,,,,,,,,,,,,,,,,,,,,,,,,sub-028,47.9,46.8,48.7,COM3,2024-02-20_15h14.50.926,2024_RDpaindiscrimination_maintask,2023.2.3,60.00128402328517,2024-02-20 15h15.16.626970 -0500,
1,0,1,0,6,0,6,0,,,,,,,,,,,,,1081.3490328000626,,,,,,,,1081.3363312999718,1086.332571899984,1086.3325776000274,1086.349084699992,1098.3658626000397,1098.3329346000683,2,inactive,47.9,1098.3330787000014,1101.9849283000221,35.500000000000085,3.633,,,,,,,,,,,,,,,,,,,,,,,,,,,,,,,,,,,,,,sub-028,47.9,46.8,48.7,COM3,2024-02-20_15h14.50.926,2024_RDpaindiscrimination_maintask,2023.2.3,60.00128402328517,2024-02-20 15h15.16.626970 -0500,
1,0,1,0,7,0,7,0,,,,,,,,,,,,,1101.999192200019,,,,,,,,1101.9856751000043,1106.9827229999937,1106.9827293000417,1106.9992183999857,1119.0160612000618,1118.9831972999964,3,inactive,47.9,1118.9833442000672,1121.168711300008,30.500000000000036,2.166,,,,,,,,,,,,,,,,,,,,,,,,,,,,,,,,,,,,,,sub-028,47.9,46.8,48.7,COM3,2024-02-20_15h14.50.926,2024_RDpaindiscrimination_maintask,2023.2.3,60.00128402328517,2024-02-20 15h15.16.626970 -0500,
1,0,1,0,8,0,8,0,,,,,,,,,,,,,1121.1827189000323,,,,,,,,1121.1689862000057,1126.1662287999643,1126.1662351000123,1126.1827244000742,1138.1995110000717,1138.1666513000382,0,active,46.8,1138.1667945999652,1142.769020000007,18.500000000000078,4.583,,,,,,,,,,,,,,,,,,,,,,,,,,,,,,,,,,,,,,sub-028,47.9,46.8,48.7,COM3,2024-02-20_15h14.50.926,2024_RDpaindiscrimination_maintask,2023.2.3,60.00128402328517,2024-02-20 15h15.16.626970 -0500,
1,0,1,0,9,0,9,0,,,,,,,,,,,,,1142.7829037000192,,,,,,,,1142.7697988,1147.7664502999978,1147.7664564000443,1147.7829476000043,1159.7997814000119,1159.7668699000496,1,inactive,47.9,1159.7670156999957,1164.036199199967,43.0,4.25,,,,,,,,,,,,,,,,,,,,,,,,,,,,,,,,,,,,,,sub-028,47.9,46.8,48.7,COM3,2024-02-20_15h14.50.926,2024_RDpaindiscrimination_maintask,2023.2.3,60.00128402328517,2024-02-20 15h15.16.626970 -0500,
1,0,1,0,10,0,10,0,,,,,,,,,,,,,1164.0497973000165,,,,,,,,1164.036970700021,1169.033335300046,1169.0333412999753,1169.0498142000288,1181.0667170999805,1181.0338417000603,2,active,46.8,1181.0339928000467,1185.185726399999,24.500000000000128,4.133,,,,,,,,,,,,,,,,,,,,,,,,,,,,,,,,,,,,,,sub-028,47.9,46.8,48.7,COM3,2024-02-20_15h14.50.926,2024_RDpaindiscrimination_maintask,2023.2.3,60.00128402328517,2024-02-20 15h15.16.626970 -0500,
1,0,1,0,11,0,11,0,,,,,,,,,,,,,1185.2001586999977,,,,,,,,1185.186422900064,1190.1836389000528,1190.183645299985,1190.2001492000418,1202.216967400047,1202.184058999992,3,active,46.8,1202.1842045000521,1207.1031729000388,14.000000000000172,4.9,,,,,,,,,,,,,,,,,,,,,,,,,,,,,,,,,,,,,,sub-028,47.9,46.8,48.7,COM3,2024-02-20_15h14.50.926,2024_RDpaindiscrimination_maintask,2023.2.3,60.00128402328517,2024-02-20 15h15.16.626970 -0500,
1,0,1,0,12,0,12,0,,,,,,,,,,,,,1207.117007700028,,,,,,,,1207.1039897999726,1212.1006003000075,1212.1006063000532,1212.117036200012,1224.1338811999885,1224.1010596000124,0,inactive,47.9,1224.1012022000505,1227.6694061000599,48.4999999999999,3.549,,,,,,,,,,,,,,,,,,,,,,,,,,,,,,,,,,,,,,sub-028,47.9,46.8,48.7,COM3,2024-02-20_15h14.50.926,2024_RDpaindiscrimination_maintask,2023.2.3,60.00128402328517,2024-02-20 15h15.16.626970 -0500,
1,0,1,0,13,0,13,0,,,,,,,,,,,,,1227.6840011000168,,,,,,,,1227.6702000000514,1232.6674796000589,1232.667486099992,1232.683925600024,1244.7840650000144,1244.667888200027,1,inactive,47.9,1244.6680333999684,1247.5039830000605,51.00000000000007,2.732,,,,,,,,,,,,,,,,,,,,,,,,,,,,,,,,,,,,,,sub-028,47.9,46.8,48.7,COM3,2024-02-20_15h14.50.926,2024_RDpaindiscrimination_maintask,2023.2.3,60.00128402328517,2024-02-20 15h15.16.626970 -0500,
1,0,1,0,14,0,14,0,,,,,,,,,,,,,1247.5174578999868,,,,,,,,1247.5048090000637,1252.5010705000022,1252.5010766000487,1252.5174921000144,1264.534210700076,1264.5013379000593,2,active,46.8,1264.5014836000046,1269.9030042999657,29.00000000000005,5.382,,,,,,,,,,,,,,,,,,,,,,,,,,,,,,,,,,,,,,sub-028,47.9,46.8,48.7,COM3,2024-02-20_15h14.50.926,2024_RDpaindiscrimination_maintask,2023.2.3,60.00128402328517,2024-02-20 15h15.16.626970 -0500,
1,0,1,0,15,0,15,0,,,,,,,,,,,,,1269.9175860000541,,,,,,,,1269.903751600068,1274.9012926999712,1274.9012986000162,1274.9177274999674,1286.9345662000123,1286.901581400074,3,active,46.8,1286.9017278000247,1290.1368766999803,31.000000000000032,3.216,,,,,,,,,,,,,,,,,,,,,,,,,,,,,,,,,,,,,,sub-028,47.9,46.8,48.7,COM3,2024-02-20_15h14.50.926,2024_RDpaindiscrimination_maintask,2023.2.3,60.00128402328517,2024-02-20 15h15.16.626970 -0500,
1,0,1,0,,,,,0,0,0,0,0,0,0,0,,,,,1298.8179664000636,,,,,,1296.7853220000397,1298.8016679000575,,,,,,,0,inactive,47.9,1315.8020254999865,1317.869366900064,72.49999999999989,2.048,1290.13748080004,1290.151204599999,1296.7850046000676,1298.801955700037,1303.801526300027,1303.8015329999616,1303.817998600076,1315.834807200008,1315.8020177000435,,,,,,,,,,,,,,,,,,,,,,,,,,,,,sub-028,47.9,46.8,48.7,COM3,2024-02-20_15h14.50.926,2024_RDpaindiscrimination_maintask,2023.2.3,60.00128402328517,2024-02-20 15h15.16.626970 -0500,
1,0,1,0,,,,,0,0,0,0,1,0,1,0,,,,,1317.88475680002,,,,,,,,,,,,,,1,active,47.9,1334.8686614000471,1336.8703676000005,60.99999999999996,1.983,,,,1317.869615499978,1322.868278500042,1322.8682852999773,1322.8847775000613,1334.9015610000351,1334.8686526999809,,,,,,,,,,,,,,,,,,,,,,,,,,,,,sub-028,47.9,46.8,48.7,COM3,2024-02-20_15h14.50.926,2024_RDpaindiscrimination_maintask,2023.2.3,60.00128402328517,2024-02-20 15h15.16.626970 -0500,
1,0,1,0,,,,,0,0,0,0,,,,,0,0,0,0,1339.3016866999678,,,,,,,,,,,,,,2,inactive,,,,,,,,,,,,,,,1336.8709175999975,1339.2900307000382,1339.2903506000293,1344.2851900999667,1344.2851968000177,1344.3016546000727,1352.301852600067,1352.301852600067,1355.251768899965,1355.3017726000398,1355.3017726000398,1355.2852905000327,3.81,4.99,381,499,8,1.2,0.75,pic-present,0,n,0.6492586999665946,None,,,,,sub-028,47.9,46.8,48.7,COM3,2024-02-20_15h14.50.926,2024_RDpaindiscrimination_maintask,2023.2.3,60.00128402328517,2024-02-20 15h15.16.626970 -0500,
1,0,1,0,,,,,0,0,0,0,,,,,1,0,1,0,1355.3017726000398,,,,,,,,,,,,,,3,active,,,,,,,,,,,,,,,,,1355.2858461000724,1360.2853188000154,1360.2853253000649,1360.3018212000607,1368.2852275000187,1368.2852275000187,1371.251940999995,1371.285320600029,1371.285320600029,1371.2688143000705,3.9,4.9,390,490,8,1.2,0.75,pic-absent,1,m,0.37243579991627485,None,,,,,sub-028,47.9,46.8,48.7,COM3,2024-02-20_15h14.50.926,2024_RDpaindiscrimination_maintask,2023.2.3,60.00128402328517,2024-02-20 15h15.16.626970 -0500,
1,0,1,0,,,,,0,0,0,0,,,,,2,0,2,0,1371.285320600029,,,,,,,,,,,,,,0,active,,,,,,,,,,,,,,,,,1371.26929690002,1376.26880239998,1376.2688094000332,1376.2853258000687,1384.2688300000736,1384.2688300000736,1387.235474199988,1387.268803199986,1387.268803199986,1387.2523177000694,4.61,4.19,461,419,8,1.2,0.75,pic-absent,0,n,0.381730500026606,None,,,,,sub-028,47.9,46.8,48.7,COM3,2024-02-20_15h14.50.926,2024_RDpaindiscrimination_maintask,2023.2.3,60.00128402328517,2024-02-20 15h15.16.626970 -0500,
1,0,1,0,,,,,0,0,0,0,,,,,3,0,3,0,1387.268803199986,,,,,,,,,,,,,,1,inactive,,,,,,,,,,,,,,,,,1387.2527888000477,1392.252338099992,1392.2523451000452,1392.2688488999847,1400.2523192999652,1400.2523192999652,1403.218968900037,1403.2523078999948,1403.2523078999948,1403.235882600071,3.57,5.23,357,523,8,1.2,0.75,pic-present,1,m,1.0021814999636263,None,,,,,sub-028,47.9,46.8,48.7,COM3,2024-02-20_15h14.50.926,2024_RDpaindiscrimination_maintask,2023.2.3,60.00128402328517,2024-02-20 15h15.16.626970 -0500,
1,0,1,0,,,,,1,0,1,0,0,0,0,0,,,,,1404.7856563000241,,,,,,1403.2363545000553,1404.769245399977,,,,,,,2,active,47.9,1421.7696448999923,1424.322563600028,24.500000000000128,2.534,,,,1404.769552999991,1409.769190400024,1409.7691970000742,1409.7857021000236,1421.8025946000125,1421.7696369000478,,,,,,,,,,,,,,,,,,,,,,,,,,,,,sub-028,47.9,46.8,48.7,COM3,2024-02-20_15h14.50.926,2024_RDpaindiscrimination_maintask,2023.2.3,60.00128402328517,2024-02-20 15h15.16.626970 -0500,
1,0,1,0,,,,,1,0,1,0,1,0,1,0,,,,,1424.335933699971,,,,,,,,,,,,,,3,inactive,47.9,1441.319901800016,1444.5721592999762,64.49999999999991,3.234,,,,1424.3231979999691,1429.319471900002,1429.31947820005,1429.3359512999887,1441.3527298000408,1441.3198941000737,,,,,,,,,,,,,,,,,,,,,,,,,,,,,sub-028,47.9,46.8,48.7,COM3,2024-02-20_15h14.50.926,2024_RDpaindiscrimination_maintask,2023.2.3,60.00128402328517,2024-02-20 15h15.16.626970 -0500,
1,0,1,0,,,,,1,0,1,0,,,,,0,0,0,0,1446.5026968000457,,,,,,,,,,,,,,0,active,,,,,,,,,,,,,,,1444.5727296000114,1446.4863792000106,1446.4866996000055,1451.4862660999643,1451.4862724000122,1451.5028276999947,1459.4862080999883,1459.4862080999883,1462.4529314000392,1462.4862189000705,1462.4862189000705,1462.4697561999783,4.08,4.72,408,472,8,1.2,0.75,pic-absent,1,m,0.6920137000270188,None,,,,,sub-028,47.9,46.8,48.7,COM3,2024-02-20_15h14.50.926,2024_RDpaindiscrimination_maintask,2023.2.3,60.00128402328517,2024-02-20 15h15.16.626970 -0500,
1,0,1,0,,,,,1,0,1,0,,,,,1,0,1,0,1462.4862189000705,,,,,,,,,,,,,,1,inactive,,,,,,,,,,,,,,,,,1462.470276099979,1467.4697808000492,1467.4697878999868,1467.486274200026,1475.4696852000197,1475.4696852000197,1478.4363856000127,1478.4697199000511,1478.4697199000511,1478.453237000038,3.66,5.14,366,514,8,1.2,0.75,pic-absent,0,n,0.3724041999084875,None,,,,,sub-028,47.9,46.8,48.7,COM3,2024-02-20_15h14.50.926,2024_RDpaindiscrimination_maintask,2023.2.3,60.00128402328517,2024-02-20 15h15.16.626970 -0500,
1,0,1,0,,,,,1,0,1,0,,,,,2,0,2,0,1478.4697199000511,,,,,,,,,,,,,,2,inactive,,,,,,,,,,,,,,,,,1478.4537353999913,1483.4532337000128,1483.45323990006,1483.469806100009,1491.4532644000137,1491.4532644000137,1494.4199337000027,1494.4532213000348,1494.4532213000348,1494.436736100004,4.38,4.42,438,442,8,1.2,0.75,pic-present,0,n,1.5091190999373794,None,,,,,sub-028,47.9,46.8,48.7,COM3,2024-02-20_15h14.50.926,2024_RDpaindiscrimination_maintask,2023.2.3,60.00128402328517,2024-02-20 15h15.16.626970 -0500,
1,0,1,0,,,,,1,0,1,0,,,,,3,0,3,0,1494.4532213000348,,,,,,,,,,,,,,3,active,,,,,,,,,,,,,,,,,1494.437207799987,1499.4367682000156,1499.4367753000697,1499.4532715000678,1507.4367700000294,1507.4367700000294,1510.4034219000023,1510.4367768999655,1510.4367768999655,1510.4202784000663,3.82,4.98,382,498,8,1.2,0.75,pic-present,1,m,0.4368820000672713,None,,,,,sub-028,47.9,46.8,48.7,COM3,2024-02-20_15h14.50.926,2024_RDpaindiscrimination_maintask,2023.2.3,60.00128402328517,2024-02-20 15h15.16.626970 -0500,
1,0,1,0,,,,,2,0,2,0,0,0,0,0,,,,,1512.7201134000206,,,,,,1510.4207798000425,1512.703720199992,,,,,,,0,inactive,47.9,1529.7040791000472,1531.9718094000127,74.49999999999999,2.249,,,,1512.7040458000265,1517.7036918000085,1517.703698700061,1517.7201652000658,1529.7369566999841,1529.7040710999863,,,,,,,,,,,,,,,,,,,,,,,,,,,,,sub-028,47.9,46.8,48.7,COM3,2024-02-20_15h14.50.926,2024_RDpaindiscrimination_maintask,2023.2.3,60.00128402328517,2024-02-20 15h15.16.626970 -0500,
1,0,1,0,,,,,2,0,2,0,1,0,1,0,,,,,1531.9870119000552,,,,,,,,,,,,,,1,active,47.9,1548.9709768000757,1551.3733522000257,24.499999999999986,2.384,,,,1531.97255950002,1536.9705260000192,1536.970532800071,1536.9870428000577,1549.0038204999873,1548.9709692000179,,,,,,,,,,,,,,,,,,,,,,,,,,,,,sub-028,47.9,46.8,48.7,COM3,2024-02-20_15h14.50.926,2024_RDpaindiscrimination_maintask,2023.2.3,60.00128402328517,2024-02-20 15h15.16.626970 -0500,
1,0,1,0,,,,,2,0,2,0,,,,,0,0,0,0,1553.603941300069,,,,,,,,,,,,,,2,inactive,,,,,,,,,,,,,,,1551.3738818999846,1553.587654700037,1553.5879685999826,1558.5875117999967,1558.5875186000485,1558.6038906000322,1566.5873843000736,1566.5873843000736,1569.5540371000534,1569.5874174999772,1569.5874174999772,1569.570954900002,4.48,4.32,448,432,8,1.2,0.75,pic-absent,0,n,0.4786172000458464,None,,,,,sub-028,47.9,46.8,48.7,COM3,2024-02-20_15h14.50.926,2024_RDpaindiscrimination_maintask,2023.2.3,60.00128402328517,2024-02-20 15h15.16.626970 -0500,
1,0,1,0,,,,,2,0,2,0,,,,,1,0,1,0,1569.5874174999772,,,,,,,,,,,,,,3,inactive,,,,,,,,,,,,,,,,,1569.5714868999785,1574.5709249000065,1574.5709320000606,1574.5874246000312,1582.5708001999883,1582.5708001999883,1585.5374982999638,1585.5708832000382,1585.5708832000382,1585.5543499999912,3.92,4.88,392,488,8,1.2,0.75,pic-present,1,m,0.4427564999787137,None,,,,,sub-028,47.9,46.8,48.7,COM3,2024-02-20_15h14.50.926,2024_RDpaindiscrimination_maintask,2023.2.3,60.00128402328517,2024-02-20 15h15.16.626970 -0500,
1,0,1,0,,,,,2,0,2,0,,,,,2,0,2,0,1585.5708832000382,,,,,,,,,,,,,,0,active,,,,,,,,,,,,,,,,,1585.5548469000496,1590.5544338000473,1590.5544404999819,1590.5708774999948,1598.55430790002,1598.55430790002,1601.5210599000566,1601.5543322999729,1601.5543322999729,1601.537846100051,4.21,4.59,421,459,8,1.2,0.75,pic-present,1,m,0.40370859997347,None,,,,,sub-028,47.9,46.8,48.7,COM3,2024-02-20_15h14.50.926,2024_RDpaindiscrimination_maintask,2023.2.3,60.00128402328517,2024-02-20 15h15.16.626970 -0500,
1,0,1,0,,,,,2,0,2,0,,,,,3,0,3,0,1601.5543322999729,,,,,,,,,,,,,,1,inactive,,,,,,,,,,,,,,,,,1601.5383247999707,1606.5379333000164,1606.5379409000743,1606.5543731000507,1614.5378414000152,1614.5378414000152,1617.5045489000622,1617.5378969999729,1617.5378969999729,1617.5214486999903,4.36,4.44,436,444,8,1.2,0.75,pic-absent,0,n,0.6481832999270409,None,,,,,sub-028,47.9,46.8,48.7,COM3,2024-02-20_15h14.50.926,2024_RDpaindiscrimination_maintask,2023.2.3,60.00128402328517,2024-02-20 15h15.16.626970 -0500,
1,0,1,0,,,,,3,0,3,0,0,0,0,0,,,,,1619.521298800013,,,,,,1617.5219545,1619.5048928000033,,,,,,,2,active,47.9,1636.505207600072,1639.1067400000757,47.000000000000014,2.582,,,,1619.505197999999,1624.5047708000056,1624.5047779000597,1624.5212908000685,1636.5381305000046,1636.5051994000096,,,,,,,,,,,,,,,,,,,,,,,,,,,,,sub-028,47.9,46.8,48.7,COM3,2024-02-20_15h14.50.926,2024_RDpaindiscrimination_maintask,2023.2.3,60.00128402328517,2024-02-20 15h15.16.626970 -0500,
1,0,1,0,,,,,3,0,3,0,1,0,1,0,,,,,1639.1214819999877,,,,,,,,,,,,,,3,inactive,47.9,1656.1054161000066,1658.9742720000213,56.50000000000005,2.85,,,,1639.106978500029,1644.1050370000303,1644.1050437999656,1644.1214772000676,1656.1382735000225,1656.105409000069,,,,,,,,,,,,,,,,,,,,,,,,,,,,,sub-028,47.9,46.8,48.7,COM3,2024-02-20_15h14.50.926,2024_RDpaindiscrimination_maintask,2023.2.3,60.00128402328517,2024-02-20 15h15.16.626970 -0500,
1,0,1,0,,,,,3,0,3,0,,,,,0,0,0,0,1660.7717342000687,,,,,,,,,,,,,,0,active,,,,,,,,,,,,,,,1658.9747897000052,1660.7555193000007,1660.7558526999783,1665.7552036000416,1665.7552099999739,1665.7717526999768,1673.7552071000682,1673.7552071000682,1676.7218367999885,1676.7551571000367,1676.7551571000367,1676.7386699999915,3.34,5.46,334,546,8,1.2,0.75,pic-present,1,m,0.5905578000238165,None,,,,,sub-028,47.9,46.8,48.7,COM3,2024-02-20_15h14.50.926,2024_RDpaindiscrimination_maintask,2023.2.3,60.00128402328517,2024-02-20 15h15.16.626970 -0500,
1,0,1,0,,,,,3,0,3,0,,,,,1,0,1,0,1676.7551571000367,,,,,,,,,,,,,,1,active,,,,,,,,,,,,,,,,,1676.7392006000737,1681.7386980999727,1681.7387052000267,1681.755244800006,1689.7387591999723,1689.7387591999723,1692.7052881000564,1692.7386211999692,1692.7386211999692,1692.7221337000374,4.05,4.75,405,475,8,1.2,0.75,pic-present,1,m,0.41159399994648993,None,,,,,sub-028,47.9,46.8,48.7,COM3,2024-02-20_15h14.50.926,2024_RDpaindiscrimination_maintask,2023.2.3,60.00128402328517,2024-02-20 15h15.16.626970 -0500,
1,0,1,0,,,,,3,0,3,0,,,,,2,0,2,0,1692.7386211999692,,,,,,,,,,,,,,2,inactive,,,,,,,,,,,,,,,,,1692.7226032000035,1697.7222123000538,1697.7222190999892,1697.73866979999,1705.7221439999994,1705.7221439999994,1708.6887772000628,1708.7221296000062,1708.7221296000062,1708.7056222000392,3.59,5.21,359,521,8,1.2,0.75,pic-absent,1,m,0.6556282999226823,None,,,,,sub-028,47.9,46.8,48.7,COM3,2024-02-20_15h14.50.926,2024_RDpaindiscrimination_maintask,2023.2.3,60.00128402328517,2024-02-20 15h15.16.626970 -0500,
1,0,1,0,,,,,3,0,3,0,,,,,3,0,3,0,1708.7221296000062,,,,,,,,,,,,,,3,active,,,,,,,,,,,,,,,,,1708.706082400051,1713.7056682000402,1713.7056757999817,1713.7221648000414,1721.705587400007,1721.705587400007,1724.6723400000483,1724.7055744000245,1724.7055744000245,1724.6891313999658,3.59,5.21,359,521,8,1.2,0.75,pic-absent,0,n,0.6680855000158772,None,,,,,sub-028,47.9,46.8,48.7,COM3,2024-02-20_15h14.50.926,2024_RDpaindiscrimination_maintask,2023.2.3,60.00128402328517,2024-02-20 15h15.16.626970 -0500,
,,,,,,,,,,,,,,,,,,,,,,,,,,,,,,,,,,,,,,,,,,,,,,,,,,,,,,,,,,,,,,,,,,,,,,,,,,1724.689581500017,1728.8394620000618,1728.8394860000117,1738.8394375999924,,,,,,,,,,,
