trials.thisRepN,trials.thisTrialN,trials.thisN,trials.thisIndex,loop_test.thisRepN,loop_test.thisTrialN,loop_test.thisN,loop_test.thisIndex,loop_eval_discri.thisRepN,loop_eval_discri.thisTrialN,loop_eval_discri.thisN,loop_eval_discri.thisIndex,loop_eval.thisRepN,loop_eval.thisTrialN,loop_eval.thisN,loop_eval.thisIndex,loop_discri.thisRepN,loop_discri.thisTrialN,loop_discri.thisN,loop_discri.thisIndex,thisRow.t,notes,Set_up.started,Set_up.stopped,electrode_check.started,electrode_check.stopped,instructions_eval.started,instructions_eval.stopped,pause_5_test.started,pause_5_test.stopped,Phase_Test.started,thermode_locali.started,Phase_Test.stopped,loca_thermode,condition,temp_trial_sent,eval_douleur.started,eval_douleur.stopped,ratingScale.response,ratingScale.rt,thermode_locali.stopped,Fin_test.started,text.started,Fin_test.stopped,pause_5_EVA.started,pause_5_EVA.stopped,tâche_EVA.started,thermode_locali_EVA.started,thermode_locali_EVA.stopped,tâche_EVA.stopped,instructions_discrim.started,instructions_discrim.stopped,pause_5_pic.started,pause_5_pic.stopped,tâche_PIC.started,thermode_locali_pic.started,percu_or.started,responser.started,thermode_locali_pic.stopped,percu_or.stopped,responser.stopped,tâche_PIC.stopped,dur_plateau1,dur_plateau2,dur_plateau1_sent,dur_plateau2_sent,start_plateau_2_resp,dur_pic,dur_rise,pic_presence,pic_response,discrimin_resp.keys,discrimin_resp.rt,discrimin_resp.duration,break_entre_bloc.started,break_entre_bloc.stopped,merci.started,merci.stopped,participant,temp_flat,temp_active,temp_pic_set,com_thermode,date,expName,psychopyVersion,frameRate,expStart,
0,0,0,0,0,0,0,0,,,,,,,,,,,,,130.566689199768,,0.015437199734151363,127.26705919997767,127.2674571997486,128.21701329993084,128.2170218997635,130.5337463999167,130.53405359992757,135.55022169975564,135.5502285999246,135.56682649999857,147.55032839998603,0,active,42.9,147.5505777997896,152.51997319981456,5.999999999999988,4.946,,,,,,,,,,,,,,,,,,,,,,,,,,,,,,,,,,,,,,,sub-033,45.3,42.9,46.2,COM3,2024-03-18_16h18.33.456,2024_RDpaindiscrimination_maintask,2023.2.3,59.98645510893208,2024-03-18 16h18.53.644231 -0400,
0,0,0,0,1,0,1,0,,,,,,,,,,,,,152.5337183997035,,,,,,,,152.520883299876,157.51730349985883,157.5173096000217,157.5337643995881,169.51758420001715,1,inactive,45.3,169.51773219974712,176.86870069988072,17.500000000000032,7.332,169.55045720003545,,,,,,,,,,,,,,,,,,,,,,,,,,,,,,,,,,,,,,sub-033,45.3,42.9,46.2,COM3,2024-03-18_16h18.33.456,2024_RDpaindiscrimination_maintask,2023.2.3,59.98645510893208,2024-03-18 16h18.53.644231 -0400,
0,0,0,0,2,0,2,0,,,,,,,,,,,,,176.88394369976595,,,,,,,,176.86947859963402,181.8675547996536,181.8675619997084,181.8840292999521,193.86790129961446,2,inactive,45.3,193.86804659990594,195.50284219998866,40.0,1.616,193.90074989991263,,,,,,,,,,,,,,,,,,,,,,,,,,,,,,,,,,,,,,sub-033,45.3,42.9,46.2,COM3,2024-03-18_16h18.33.456,2024_RDpaindiscrimination_maintask,2023.2.3,59.98645510893208,2024-03-18 16h18.53.644231 -0400,
0,0,0,0,3,0,3,0,,,,,,,,,,,,,195.51749689970165,,,,,,,,195.5030985996127,200.50094439974055,200.50095079978928,200.517443199642,212.50143949966878,3,active,42.9,212.50158129958436,217.35317059978843,4.500000000000164,4.833,212.53431169968098,,,,,,,,,,,,,,,,,,,,,,,,,,,,,,,,,,,,,,sub-033,45.3,42.9,46.2,COM3,2024-03-18_16h18.33.456,2024_RDpaindiscrimination_maintask,2023.2.3,59.98645510893208,2024-03-18 16h18.53.644231 -0400,
0,0,0,0,4,0,4,0,,,,,,,,,,,,,217.36758899968117,,,,,,,,217.35400219960138,222.3512333999388,222.35123999975622,222.3676740997471,234.35157559998333,0,inactive,45.3,234.35171729978174,238.30438559968024,2.5000000000001648,3.934,234.38450779998675,,,,,,,,,,,,,,,,,,,,,,,,,,,,,,,,,,,,,,sub-033,45.3,42.9,46.2,COM3,2024-03-18_16h18.33.456,2024_RDpaindiscrimination_maintask,2023.2.3,59.98645510893208,2024-03-18 16h18.53.644231 -0400,
0,0,0,0,5,0,5,0,,,,,,,,,,,,,238.3178756996058,,,,,,,,238.30515539972112,243.30144109996036,243.30144729977474,243.31788909994066,255.30180280003697,1,active,42.9,255.3019464998506,258.07102459995076,3.000000000000058,2.751,255.33464729972184,,,,,,,,,,,,,,,,,,,,,,,,,,,,,,,,,,,,,,sub-033,45.3,42.9,46.2,COM3,2024-03-18_16h18.33.456,2024_RDpaindiscrimination_maintask,2023.2.3,59.98645510893208,2024-03-18 16h18.53.644231 -0400,
0,0,0,0,6,0,6,0,,,,,,,,,,,,,258.0847401996143,,,,,,,,258.0717581999488,263.0683218999766,263.06832790002227,263.08480930002406,275.0687200999819,2,inactive,45.3,275.06886349990964,280.42138999979943,39.50000000000011,5.333,275.1015247995965,,,,,,,,,,,,,,,,,,,,,,,,,,,,,,,,,,,,,,sub-033,45.3,42.9,46.2,COM3,2024-03-18_16h18.33.456,2024_RDpaindiscrimination_maintask,2023.2.3,59.98645510893208,2024-03-18 16h18.53.644231 -0400,
0,0,0,0,7,0,7,0,,,,,,,,,,,,,280.43500549998134,,,,,,,,280.42215959960595,285.41857079975307,285.41857689991593,285.4349982999265,297.4195365998894,3,active,42.9,297.41968099959195,301.56985910004005,7.0000000000000595,4.131,297.45182790001854,,,,,,,,,,,,,,,,,,,,,,,,,,,,,,,,,,,,,,sub-033,45.3,42.9,46.2,COM3,2024-03-18_16h18.33.456,2024_RDpaindiscrimination_maintask,2023.2.3,59.98645510893208,2024-03-18 16h18.53.644231 -0400,
0,0,0,0,8,0,8,0,,,,,,,,,,,,,301.5851979996078,,,,,,,,301.57060599979013,306.5688195996918,306.5688252998516,306.5852167997509,318.5691914996132,0,active,42.9,318.56933579966426,323.4211593000218,3.000000000000067,4.833,318.6020477996208,,,,,,,,,,,,,,,,,,,,,,,,,,,,,,,,,,,,,,sub-033,45.3,42.9,46.2,COM3,2024-03-18_16h18.33.456,2024_RDpaindiscrimination_maintask,2023.2.3,59.98645510893208,2024-03-18 16h18.53.644231 -0400,
0,0,0,0,9,0,9,0,,,,,,,,,,,,,323.43538419995457,,,,,,,,323.4219149998389,328.41901739966124,328.4190234998241,328.43547349981964,340.41933359997347,1,inactive,45.3,340.41947910003364,344.32101159961894,52.49999999999996,3.883,340.45219129975885,,,,,,,,,,,,,,,,,,,,,,,,,,,,,,,,,,,,,,sub-033,45.3,42.9,46.2,COM3,2024-03-18_16h18.33.456,2024_RDpaindiscrimination_maintask,2023.2.3,59.98645510893208,2024-03-18 16h18.53.644231 -0400,
0,0,0,0,10,0,10,0,,,,,,,,,,,,,344.3356426996179,,,,,,,,344.32130969967693,349.31915559992194,349.3191617997363,349.3357216999866,361.3195799998939,2,active,42.9,361.31973409978673,367.1714532999322,9.500000000000169,5.833,361.35240820003673,,,,,,,,,,,,,,,,,,,,,,,,,,,,,,,,,,,,,,sub-033,45.3,42.9,46.2,COM3,2024-03-18_16h18.33.456,2024_RDpaindiscrimination_maintask,2023.2.3,59.98645510893208,2024-03-18 16h18.53.644231 -0400,
0,0,0,0,11,0,11,0,,,,,,,,,,,,,367.18596639996395,,,,,,,,367.1722426000051,372.16951929964125,372.16952589992434,372.1859021997079,384.16992689995095,3,inactive,45.3,384.1700742999092,391.18939039995894,22.000000000000135,6.953,384.25273659965023,,,,,,,,,,,,,,,,,,,,,,,,,,,,,,,,,,,,,,sub-033,45.3,42.9,46.2,COM3,2024-03-18_16h18.33.456,2024_RDpaindiscrimination_maintask,2023.2.3,59.98645510893208,2024-03-18 16h18.53.644231 -0400,
0,0,0,0,12,0,12,0,,,,,,,,,,,,,391.2028336999938,,,,,,,,391.19013699982315,396.186346499715,396.186352299992,396.2028349000029,408.18669370003045,0,inactive,45.3,408.18683919962496,413.32227989984676,22.500000000000064,5.117,408.219613999594,,,,,,,,,,,,,,,,,,,,,,,,,,,,,,,,,,,,,,sub-033,45.3,42.9,46.2,COM3,2024-03-18_16h18.33.456,2024_RDpaindiscrimination_maintask,2023.2.3,59.98645510893208,2024-03-18 16h18.53.644231 -0400,
0,0,0,0,13,0,13,0,,,,,,,,,,,,,413.33634199993685,,,,,,,,413.3230534000322,418.31991910003126,418.3199253999628,418.33641079999506,430.3203763999045,1,active,42.9,430.32051819982007,433.9886447000317,14.500000000000101,3.649,430.3531781998463,,,,,,,,,,,,,,,,,,,,,,,,,,,,,,,,,,,,,,sub-033,45.3,42.9,46.2,COM3,2024-03-18_16h18.33.456,2024_RDpaindiscrimination_maintask,2023.2.3,59.98645510893208,2024-03-18 16h18.53.644231 -0400,
0,0,0,0,14,0,14,0,,,,,,,,,,,,,434.0032770000398,,,,,,,,433.9894153997302,438.98680149996653,438.9868079996668,439.0033231000416,450.9872763999738,2,active,42.9,450.98741919966415,456.08931989967823,8.000000000000203,5.083,451.02008319972083,,,,,,,,,,,,,,,,,,,,,,,,,,,,,,,,,,,,,,sub-033,45.3,42.9,46.2,COM3,2024-03-18_16h18.33.456,2024_RDpaindiscrimination_maintask,2023.2.3,59.98645510893208,2024-03-18 16h18.53.644231 -0400,
0,0,0,0,15,0,15,0,,,,,,,,,,,,,456.10349809983745,,,,,,,,456.0895616998896,461.0870725000277,461.08707849960774,461.1035486999899,473.0874870000407,3,inactive,45.3,473.0876320996322,479.0892703998834,51.999999999999886,5.983,473.1203676997684,,,,,,,,,,,,,,,,,,,,,,,,,,,,,,,,,,,,,,sub-033,45.3,42.9,46.2,COM3,2024-03-18_16h18.33.456,2024_RDpaindiscrimination_maintask,2023.2.3,59.98645510893208,2024-03-18 16h18.53.644231 -0400,
0,0,0,0,,,,,0,0,0,0,0,0,0,0,,,,,527.9375827996992,,,,,,526.8881525998004,527.9211640995927,,,,,,0,active,45.3,544.9214049000293,552.1909455996938,6.500000000000201,7.251,,479.08944100001827,479.10374940000474,526.8878314998001,527.9214236997068,532.9211249998771,532.9211318995804,532.9376334999688,544.9544338998385,544.9213963998482,,,,,,,,,,,,,,,,,,,,,,,,,,,,,sub-033,45.3,42.9,46.2,COM3,2024-03-18_16h18.33.456,2024_RDpaindiscrimination_maintask,2023.2.3,59.98645510893208,2024-03-18 16h18.53.644231 -0400,
0,0,0,0,,,,,0,0,0,0,1,0,1,0,,,,,552.2044322998263,,,,,,,,,,,,,1,inactive,45.3,569.1884496998973,573.6896821996197,38.000000000000114,4.482,,,,,552.1916610999033,557.1880391999148,557.1880453997292,557.204488999676,569.2212699996307,569.1884417999536,,,,,,,,,,,,,,,,,,,,,,,,,,,,,sub-033,45.3,42.9,46.2,COM3,2024-03-18_16h18.33.456,2024_RDpaindiscrimination_maintask,2023.2.3,59.98645510893208,2024-03-18 16h18.53.644231 -0400,
0,0,0,0,,,,,0,0,0,0,,,,,0,0,0,0,577.1213634996675,,,,,,,,,,,,,2,active,,,,,,,,,,,,,,,,573.689872500021,577.1050762999803,577.105403999798,582.1049197996035,582.1049269000068,582.1214588996954,590.104865399655,590.104865399655,593.0715395999141,593.1048725997098,593.1048725997098,593.0883891996928,4.46,4.34,446,434,8,1.2,0.75,pic-absent,0,m,2.943583899643272,None,,,,,sub-033,45.3,42.9,46.2,COM3,2024-03-18_16h18.33.456,2024_RDpaindiscrimination_maintask,2023.2.3,59.98645510893208,2024-03-18 16h18.53.644231 -0400,
0,0,0,0,,,,,0,0,0,0,,,,,1,0,1,0,593.1048725997098,,,,,,,,,,,,,3,active,,,,,,,,,,,,,,,,,,593.0890286997892,598.0884158997796,598.0884225997142,598.1049265000038,606.0883754999377,606.0883754999377,609.0550814997405,609.0883712000214,609.0883712000214,609.0718803997152,4.19,4.61,419,461,8,1.2,0.75,pic-absent,0,m,0.8441405999474227,None,,,,,sub-033,45.3,42.9,46.2,COM3,2024-03-18_16h18.33.456,2024_RDpaindiscrimination_maintask,2023.2.3,59.98645510893208,2024-03-18 16h18.53.644231 -0400,
0,0,0,0,,,,,0,0,0,0,,,,,2,0,2,0,609.0883712000214,,,,,,,,,,,,,0,inactive,,,,,,,,,,,,,,,,,,609.0724018998444,614.0719088995829,614.0719155999832,614.0883904998191,622.0719054997899,622.0719054997899,625.0385741000064,625.0718698999844,625.0718698999844,625.0554519998841,4.03,4.77,403,476,8,1.2,0.75,pic-present,0,m,0.8521608998999,None,,,,,sub-033,45.3,42.9,46.2,COM3,2024-03-18_16h18.33.456,2024_RDpaindiscrimination_maintask,2023.2.3,59.98645510893208,2024-03-18 16h18.53.644231 -0400,
0,0,0,0,,,,,0,0,0,0,,,,,3,0,3,0,625.0718698999844,,,,,,,,,,,,,1,active,,,,,,,,,,,,,,,,,,625.0559018999338,630.055423699785,630.0554301999509,630.0719188000076,638.0553791997954,638.0553791997954,641.0220830999315,641.0553708998486,641.0553708998486,641.0388905997388,4.01,4.79,401,479,8,1.2,0.75,pic-absent,0,m,1.096431900281459,None,,,,,sub-033,45.3,42.9,46.2,COM3,2024-03-18_16h18.33.456,2024_RDpaindiscrimination_maintask,2023.2.3,59.98645510893208,2024-03-18 16h18.53.644231 -0400,
0,0,0,0,,,,,1,0,1,0,0,0,0,0,,,,,644.37210949976,,,,,,641.0393888996914,644.3557675997727,,,,,,2,inactive,45.3,661.3561414997093,668.6588051998988,29.500000000000036,7.284,,,,,644.3561426997185,649.3556321999058,649.3556394996122,649.3721194998361,661.3889718996361,661.3561336998828,,,,,,,,,,,,,,,,,,,,,,,,,,,,,sub-033,45.3,42.9,46.2,COM3,2024-03-18_16h18.33.456,2024_RDpaindiscrimination_maintask,2023.2.3,59.98645510893208,2024-03-18 16h18.53.644231 -0400,
0,0,0,0,,,,,1,0,1,0,1,0,1,0,,,,,668.6723819999024,,,,,,,,,,,,,3,active,45.3,685.6562004997395,692.3912442997098,14.500000000000004,6.716,,,,,668.6595458998345,673.6559223998338,673.6559295998886,673.6724103000015,685.6892623999156,685.6561928000301,,,,,,,,,,,,,,,,,,,,,,,,,,,,,sub-033,45.3,42.9,46.2,COM3,2024-03-18_16h18.33.456,2024_RDpaindiscrimination_maintask,2023.2.3,59.98645510893208,2024-03-18 16h18.53.644231 -0400,
0,0,0,0,,,,,1,0,1,0,,,,,0,0,0,0,695.2059907997027,,,,,,,,,,,,,0,active,,,,,,,,,,,,,,,,692.391777199693,695.1895952997729,695.1899057999253,700.1896003996953,700.1896073999815,700.2060493999161,708.1894947998226,708.1894947998226,711.1561614996754,711.1894962997176,711.1894962997176,711.1730917999521,4.69,4.11,469,411,8,1.2,0.75,pic-present,0,m,1.8752569002099335,None,,,,,sub-033,45.3,42.9,46.2,COM3,2024-03-18_16h18.33.456,2024_RDpaindiscrimination_maintask,2023.2.3,59.98645510893208,2024-03-18 16h18.53.644231 -0400,
0,0,0,0,,,,,1,0,1,0,,,,,1,0,1,0,711.1894962997176,,,,,,,,,,,,,1,inactive,,,,,,,,,,,,,,,,,,711.1736871995963,716.1730365999974,716.1730441995896,716.1895608999766,724.17299669981,724.17299669981,727.1396989999339,727.1730290995911,727.1730290995911,727.1565433000214,4.45,4.35,445,434,8,1.2,0.75,pic-present,0,m,1.555558499880135,None,,,,,sub-033,45.3,42.9,46.2,COM3,2024-03-18_16h18.33.456,2024_RDpaindiscrimination_maintask,2023.2.3,59.98645510893208,2024-03-18 16h18.53.644231 -0400,
0,0,0,0,,,,,1,0,1,0,,,,,2,0,2,0,727.1730290995911,,,,,,,,,,,,,2,inactive,,,,,,,,,,,,,,,,,,727.157040799968,732.1565713998862,732.1565784998238,732.1730780997314,740.156502999831,740.156502999831,743.1231975997798,743.156541199889,743.156541199889,743.1400540997274,4.06,4.74,405,474,8,1.2,0.75,pic-absent,1,n,1.3349639000371099,None,,,,,sub-033,45.3,42.9,46.2,COM3,2024-03-18_16h18.33.456,2024_RDpaindiscrimination_maintask,2023.2.3,59.98645510893208,2024-03-18 16h18.53.644231 -0400,
0,0,0,0,,,,,1,0,1,0,,,,,3,0,3,0,743.156541199889,,,,,,,,,,,,,3,active,,,,,,,,,,,,,,,,,,743.1405600998551,748.1400798000395,748.1400864999741,748.1565977996215,756.1399988997728,756.1399988997728,759.1067361999303,759.1400321996771,759.1400321996771,759.1237189997919,4.08,4.72,408,472,8,1.2,0.75,pic-present,0,m,1.344198599923402,None,,,,,sub-033,45.3,42.9,46.2,COM3,2024-03-18_16h18.33.456,2024_RDpaindiscrimination_maintask,2023.2.3,59.98645510893208,2024-03-18 16h18.53.644231 -0400,
0,0,0,0,,,,,2,0,2,0,0,0,0,0,,,,,761.9900577999651,,,,,,759.1242346996441,761.9736623996869,,,,,,0,inactive,45.3,778.9740924998187,782.9435862996615,21.999999999999993,3.951,,,,,761.9739791997708,766.9736072998494,766.973614399787,766.9900720999576,779.0069094998762,778.9740843996406,,,,,,,,,,,,,,,,,,,,,,,,,,,,,sub-033,45.3,42.9,46.2,COM3,2024-03-18_16h18.33.456,2024_RDpaindiscrimination_maintask,2023.2.3,59.98645510893208,2024-03-18 16h18.53.644231 -0400,
0,0,0,0,,,,,2,0,2,0,1,0,1,0,,,,,782.9569438998587,,,,,,,,,,,,,1,active,45.3,799.940820499789,806.492179099936,46.499999999999915,6.532,,,,,782.9443419999443,787.9405016000383,787.9405084997416,787.9570118999109,799.9737092996947,799.9408129998483,,,,,,,,,,,,,,,,,,,,,,,,,,,,,sub-033,45.3,42.9,46.2,COM3,2024-03-18_16h18.33.456,2024_RDpaindiscrimination_maintask,2023.2.3,59.98645510893208,2024-03-18 16h18.53.644231 -0400,
0,0,0,0,,,,,2,0,2,0,,,,,0,0,0,0,809.0237714997493,,,,,,,,,,,,,2,inactive,,,,,,,,,,,,,,,,806.4927407000214,809.0073388000019,809.0076637999155,814.0073965997435,814.0074030999094,814.0237890998833,822.0072009996511,822.0072009996511,824.9738989998586,825.0072359000333,825.0072359000333,824.9907488999888,3.45,5.35,345,535,8,1.2,0.75,pic-present,0,m,0.7844630000181496,None,,,,,sub-033,45.3,42.9,46.2,COM3,2024-03-18_16h18.33.456,2024_RDpaindiscrimination_maintask,2023.2.3,59.98645510893208,2024-03-18 16h18.53.644231 -0400,
0,0,0,0,,,,,2,0,2,0,,,,,1,0,1,0,825.0072359000333,,,,,,,,,,,,,3,inactive,,,,,,,,,,,,,,,,,,824.9913002997637,829.990962699987,829.9909691000357,830.0074193999171,837.9908278998919,837.9908278998919,840.9574541999027,840.9907345999964,840.9907345999964,840.9742438998073,3.98,4.82,398,482,8,1.2,0.75,pic-absent,0,m,1.5014375997707248,None,,,,,sub-033,45.3,42.9,46.2,COM3,2024-03-18_16h18.33.456,2024_RDpaindiscrimination_maintask,2023.2.3,59.98645510893208,2024-03-18 16h18.53.644231 -0400,
0,0,0,0,,,,,2,0,2,0,,,,,2,0,2,0,840.9907345999964,,,,,,,,,,,,,0,active,,,,,,,,,,,,,,,,,,840.9746940997429,845.9743172996677,845.9743240997195,845.9907839000225,853.9742371998727,853.9742371998727,856.9409649996087,856.9743150998838,856.9743150998838,856.957805399783,3.85,4.95,385,495,8,1.2,0.75,pic-absent,0,m,1.0895091001875699,None,,,,,sub-033,45.3,42.9,46.2,COM3,2024-03-18_16h18.33.456,2024_RDpaindiscrimination_maintask,2023.2.3,59.98645510893208,2024-03-18 16h18.53.644231 -0400,
0,0,0,0,,,,,2,0,2,0,,,,,3,0,3,0,856.9743150998838,,,,,,,,,,,,,1,inactive,,,,,,,,,,,,,,,,,,856.9583125999197,861.9578451998532,861.9578525996767,861.974354099948,869.9578021997586,869.9578021997586,872.9244717997499,872.9578129998408,872.9578129998408,872.94134879997,4.16,4.64,416,463,8,1.2,0.75,pic-present,0,m,0.6816136999987066,None,,,,,sub-033,45.3,42.9,46.2,COM3,2024-03-18_16h18.33.456,2024_RDpaindiscrimination_maintask,2023.2.3,59.98645510893208,2024-03-18 16h18.53.644231 -0400,
0,0,0,0,,,,,3,0,3,0,0,0,0,0,,,,,875.0244855997153,,,,,,872.9418584997766,875.0081721995957,,,,,,2,active,45.3,892.008375399746,897.7602574997582,31.000000000000174,5.733,,,,,875.008445199579,880.0080327996984,880.0080398996361,880.0245762998238,892.0413336995989,892.0083673996851,,,,,,,,,,,,,,,,,,,,,,,,,,,,,sub-033,45.3,42.9,46.2,COM3,2024-03-18_16h18.33.456,2024_RDpaindiscrimination_maintask,2023.2.3,59.98645510893208,2024-03-18 16h18.53.644231 -0400,
0,0,0,0,,,,,3,0,3,0,1,0,1,0,,,,,897.7747387997806,,,,,,,,,,,,,3,inactive,45.3,914.7586225997657,919.19334719982,36.50000000000005,4.416,,,,,897.7609651000239,902.75826889975,902.7582752997987,902.7747829998843,914.791602499783,914.7586149997078,,,,,,,,,,,,,,,,,,,,,,,,,,,,,sub-033,45.3,42.9,46.2,COM3,2024-03-18_16h18.33.456,2024_RDpaindiscrimination_maintask,2023.2.3,59.98645510893208,2024-03-18 16h18.53.644231 -0400,
0,0,0,0,,,,,3,0,3,0,,,,,0,0,0,0,922.1083472999744,,,,,,,,,,,,,0,inactive,,,,,,,,,,,,,,,,919.1938779000193,922.0919384998269,922.0922526996583,927.0918943998404,927.0919009000063,927.108345599845,935.0917581999674,935.0917581999674,938.0585125996731,938.0918568996713,938.0918568996713,938.0753373997286,4.11,4.69,411,469,8,1.2,0.75,pic-absent,1,n,1.6319232997484505,None,,,,,sub-033,45.3,42.9,46.2,COM3,2024-03-18_16h18.33.456,2024_RDpaindiscrimination_maintask,2023.2.3,59.98645510893208,2024-03-18 16h18.53.644231 -0400,
0,0,0,0,,,,,3,0,3,0,,,,,1,0,1,0,938.0918568996713,,,,,,,,,,,,,1,active,,,,,,,,,,,,,,,,,,938.0759028997272,943.0754082999192,943.0754151996225,943.0918920999393,951.0753698996268,951.0753698996268,954.0420107999817,954.0753094996326,954.0753094996326,954.058859099634,4.52,4.28,451,428,8,1.2,0.75,pic-present,0,m,0.7532174997031689,None,,,,,sub-033,45.3,42.9,46.2,COM3,2024-03-18_16h18.33.456,2024_RDpaindiscrimination_maintask,2023.2.3,59.98645510893208,2024-03-18 16h18.53.644231 -0400,
0,0,0,0,,,,,3,0,3,0,,,,,2,0,2,0,954.0753094996326,,,,,,,,,,,,,2,active,,,,,,,,,,,,,,,,,,954.0593711999245,959.0589001998305,959.058907199651,959.0754076000303,967.0587688996457,967.0587688996457,970.025523299817,970.0588570996188,970.0588570996188,970.0424173995852,3.26,5.54,326,554,8,1.2,0.75,pic-present,0,m,0.8566579003818333,None,,,,,sub-033,45.3,42.9,46.2,COM3,2024-03-18_16h18.33.456,2024_RDpaindiscrimination_maintask,2023.2.3,59.98645510893208,2024-03-18 16h18.53.644231 -0400,
0,0,0,0,,,,,3,0,3,0,,,,,3,0,3,0,970.0588570996188,,,,,,,,,,,,,3,inactive,,,,,,,,,,,,,,,,,,970.0428773998283,975.0424306998029,975.0424376996234,975.0588680999354,983.0423610997386,983.0423610997386,986.009068199899,986.0422351998277,986.0422351998277,986.0258201998658,3.29,5.51,329,551,8,1.2,0.75,pic-absent,1,n,1.009707000106573,None,,,,,sub-033,45.3,42.9,46.2,COM3,2024-03-18_16h18.33.456,2024_RDpaindiscrimination_maintask,2023.2.3,59.98645510893208,2024-03-18 16h18.53.644231 -0400,
1,0,1,0,0,0,0,0,,,,,,,,,,,,,1061.009840299841,,,,1057.5290020997636,1058.9934086999856,1058.9934162995778,1060.9934489997104,1060.9937672000378,1065.9933500997722,1065.9933571997099,1066.0098933996633,1077.9937352999114,0,inactive,45.3,1077.993944299873,1082.4113014996983,9.000000000000096,4.394,1078.0265301000327,,,,,,,,,,,,,,,,,,,,,,,,,,,,,,,,,,986.0262452997267,1057.5288572995923,,,sub-033,45.3,42.9,46.2,COM3,2024-03-18_16h18.33.456,2024_RDpaindiscrimination_maintask,2023.2.3,59.98645510893208,2024-03-18 16h18.53.644231 -0400,
1,0,1,0,1,0,1,0,,,,,,,,,,,,,1082.4266565996222,,,,,,,,1082.4121997999027,1087.4102171999402,1087.4102234998718,1087.4267102996819,1099.41062780004,1,active,42.9,1099.4107719999738,1102.228588799946,1.999999999999997,2.799,1099.4435409000143,,,,,,,,,,,,,,,,,,,,,,,,,,,,,,,,,,,,,,sub-033,45.3,42.9,46.2,COM3,2024-03-18_16h18.33.456,2024_RDpaindiscrimination_maintask,2023.2.3,59.98645510893208,2024-03-18 16h18.53.644231 -0400,
1,0,1,0,2,0,2,0,,,,,,,,,,,,,1102.243550799787,,,,,,,,1102.2293551997282,1107.2270366996527,1107.2270429995842,1107.243587399833,1119.227468600031,2,inactive,45.3,1119.2276153997518,1124.34561259998,11.00000000000017,5.099,1119.2610227996483,,,,,,,,,,,,,,,,,,,,,,,,,,,,,,,,,,,,,,sub-033,45.3,42.9,46.2,COM3,2024-03-18_16h18.33.456,2024_RDpaindiscrimination_maintask,2023.2.3,59.98645510893208,2024-03-18 16h18.53.644231 -0400,
1,0,1,0,3,0,3,0,,,,,,,,,,,,,1124.3604887998663,,,,,,,,1124.346386899706,1129.3439314998686,1129.3439374999143,1129.3604388996027,1141.3444576999173,3,inactive,45.3,1141.344601799734,1146.1296472996473,33.00000000000013,4.766,1141.377320099622,,,,,,,,,,,,,,,,,,,,,,,,,,,,,,,,,,,,,,sub-033,45.3,42.9,46.2,COM3,2024-03-18_16h18.33.456,2024_RDpaindiscrimination_maintask,2023.2.3,59.98645510893208,2024-03-18 16h18.53.644231 -0400,
1,0,1,0,4,0,4,0,,,,,,,,,,,,,1146.1440546996891,,,,,,,,1146.1304317996837,1151.1275747995824,1151.127581199631,1151.1439915997908,1163.1280262996443,0,active,42.9,1163.1281707999296,1167.029915199615,2.0000000000000586,3.883,1163.160937699955,,,,,,,,,,,,,,,,,,,,,,,,,,,,,,,,,,,,,,sub-033,45.3,42.9,46.2,COM3,2024-03-18_16h18.33.456,2024_RDpaindiscrimination_maintask,2023.2.3,59.98645510893208,2024-03-18 16h18.53.644231 -0400,
1,0,1,0,5,0,5,0,,,,,,,,,,,,,1167.044155600015,,,,,,,,1167.0301571995951,1172.027827099897,1172.0278333998285,1172.0443286998197,1184.0282578999177,1,active,42.9,1184.0284007997252,1190.078937099781,11.000000000000071,6.031,1184.0610809996724,,,,,,,,,,,,,,,,,,,,,,,,,,,,,,,,,,,,,,sub-033,45.3,42.9,46.2,COM3,2024-03-18_16h18.33.456,2024_RDpaindiscrimination_maintask,2023.2.3,59.98645510893208,2024-03-18 16h18.53.644231 -0400,
1,0,1,0,6,0,6,0,,,,,,,,,,,,,1190.0944008999504,,,,,,,,1190.07919819979,1195.078072599601,1195.0780789996497,1195.0945329000242,1207.078442899976,2,inactive,45.3,1207.0785842998885,1212.064190399833,27.99999999999997,4.966,1207.1113592996262,,,,,,,,,,,,,,,,,,,,,,,,,,,,,,,,,,,,,,sub-033,45.3,42.9,46.2,COM3,2024-03-18_16h18.33.456,2024_RDpaindiscrimination_maintask,2023.2.3,59.98645510893208,2024-03-18 16h18.53.644231 -0400,
1,0,1,0,7,0,7,0,,,,,,,,,,,,,1212.0780815999024,,,,,,,,1212.0649751997553,1217.0616311999038,1217.061637699604,1217.0780891999602,1229.062060199678,3,active,42.9,1229.0622008997016,1234.3641703999601,8.50000000000007,5.283,1229.094909899868,,,,,,,,,,,,,,,,,,,,,,,,,,,,,,,,,,,,,,sub-033,45.3,42.9,46.2,COM3,2024-03-18_16h18.33.456,2024_RDpaindiscrimination_maintask,2023.2.3,59.98645510893208,2024-03-18 16h18.53.644231 -0400,
1,0,1,0,8,0,8,0,,,,,,,,,,,,,1234.378284999635,,,,,,,,1234.3649509996176,1239.361747100018,1239.3617533999495,1239.378242999781,1251.3621771000326,0,active,42.9,1251.3623216999695,1254.464275999926,3.0,3.083,1251.3950319997966,,,,,,,,,,,,,,,,,,,,,,,,,,,,,,,,,,,,,,sub-033,45.3,42.9,46.2,COM3,2024-03-18_16h18.33.456,2024_RDpaindiscrimination_maintask,2023.2.3,59.98645510893208,2024-03-18 16h18.53.644231 -0400,
1,0,1,0,9,0,9,0,,,,,,,,,,,,,1254.4783911998384,,,,,,,,1254.465031199623,1259.4619596996345,1259.4619660996832,1259.4784579998814,1271.4623724999838,1,inactive,45.3,1271.4625195995905,1279.4974580998532,43.50000000000009,8.016,1271.4952471000142,,,,,,,,,,,,,,,,,,,,,,,,,,,,,,,,,,,,,,sub-033,45.3,42.9,46.2,COM3,2024-03-18_16h18.33.456,2024_RDpaindiscrimination_maintask,2023.2.3,59.98645510893208,2024-03-18 16h18.53.644231 -0400,
1,0,1,0,10,0,10,0,,,,,,,,,,,,,1279.5120862997137,,,,,,,,1279.4982374999672,1284.4957450996153,1284.495751899667,1284.5121064996347,1296.495922499802,2,active,42.9,1296.4960710997693,1300.7141028000042,4.500000000000058,4.199,1296.5287946998142,,,,,,,,,,,,,,,,,,,,,,,,,,,,,,,,,,,,,,sub-033,45.3,42.9,46.2,COM3,2024-03-18_16h18.33.456,2024_RDpaindiscrimination_maintask,2023.2.3,59.98645510893208,2024-03-18 16h18.53.644231 -0400,
1,0,1,0,11,0,11,0,,,,,,,,,,,,,1300.812299199868,,,,,,,,1300.7149500995874,1305.7289638998918,1305.728969599586,1305.745600400027,1317.7291212999262,3,active,42.9,1317.7292782999575,1321.0150469997898,3.9999999999999964,3.267,,,,,,,,,,,,,,,,,,,,,,,,,,,,,,,,,,,,,,,sub-033,45.3,42.9,46.2,COM3,2024-03-18_16h18.33.456,2024_RDpaindiscrimination_maintask,2023.2.3,59.98645510893208,2024-03-18 16h18.53.644231 -0400,
1,0,1,0,12,0,12,0,,,,,,,,,,,,,1321.0290879998356,,,,,,,,1321.015858899802,1326.0126454997808,1326.0126518998295,1326.0292030000128,1338.0130427000113,0,inactive,45.3,1338.0131865995936,1343.9475125996396,25.000000000000124,5.915,1338.045894799754,,,,,,,,,,,,,,,,,,,,,,,,,,,,,,,,,,,,,,sub-033,45.3,42.9,46.2,COM3,2024-03-18_16h18.33.456,2024_RDpaindiscrimination_maintask,2023.2.3,59.98645510893208,2024-03-18 16h18.53.644231 -0400,
1,0,1,0,13,0,13,0,,,,,,,,,,,,,1343.9627473996952,,,,,,,,1343.9483159999363,1348.946384199895,1348.9463897999376,1348.9628168996423,1360.9466785998084,1,inactive,45.3,1360.9468256998807,1366.2323938999325,50.99999999999993,5.267,1360.9795810999349,,,,,,,,,,,,,,,,,,,,,,,,,,,,,,,,,,,,,,sub-033,45.3,42.9,46.2,COM3,2024-03-18_16h18.33.456,2024_RDpaindiscrimination_maintask,2023.2.3,59.98645510893208,2024-03-18 16h18.53.644231 -0400,
1,0,1,0,14,0,14,0,,,,,,,,,,,,,1366.2463267999701,,,,,,,,1366.2332265996374,1371.2298240000382,1371.2298325998709,1371.2463299999945,1383.2302702995948,2,active,42.9,1383.2304227999412,1390.4823673996143,7.5000000000002025,7.233,1383.263100499753,,,,,,,,,,,,,,,,,,,,,,,,,,,,,,,,,,,,,,sub-033,45.3,42.9,46.2,COM3,2024-03-18_16h18.33.456,2024_RDpaindiscrimination_maintask,2023.2.3,59.98645510893208,2024-03-18 16h18.53.644231 -0400,
1,0,1,0,15,0,15,0,,,,,,,,,,,,,1390.496513299644,,,,,,,,1390.483103599865,1395.4801130997948,1395.4801191999577,1395.4965646998025,1407.4804761996493,3,inactive,45.3,1407.4806201998144,1412.549512699712,48.99999999999991,5.05,1407.513350999914,,,,,,,,,,,,,,,,,,,,,,,,,,,,,,,,,,,,,,sub-033,45.3,42.9,46.2,COM3,2024-03-18_16h18.33.456,2024_RDpaindiscrimination_maintask,2023.2.3,59.98645510893208,2024-03-18 16h18.53.644231 -0400,
1,0,1,0,,,,,0,0,0,0,0,0,0,0,,,,,1423.0801466000266,,,,,,1421.880768999923,1423.0637509999797,,,,,,0,inactive,45.3,1440.0640341998078,1447.065848399885,8.500000000000203,6.983,,1412.5500778998248,1412.563381199725,1421.8804420996457,1423.0640483000316,1428.06375749968,1428.0637642997317,1428.0802002996206,1440.0969898998737,1440.064025899861,,,,,,,,,,,,,,,,,,,,,,,,,,,,,sub-033,45.3,42.9,46.2,COM3,2024-03-18_16h18.33.456,2024_RDpaindiscrimination_maintask,2023.2.3,59.98645510893208,2024-03-18 16h18.53.644231 -0400,
1,0,1,0,,,,,0,0,0,0,1,0,1,0,,,,,1447.0804419997148,,,,,,,,,,,,,1,active,45.3,1464.0642728996463,1468.7998592997901,50.0,4.717,,,,,1447.0665978998877,1452.0639379997738,1452.0639446997084,1452.080510799773,1464.0972777996212,1464.06426559994,,,,,,,,,,,,,,,,,,,,,,,,,,,,,sub-033,45.3,42.9,46.2,COM3,2024-03-18_16h18.33.456,2024_RDpaindiscrimination_maintask,2023.2.3,59.98645510893208,2024-03-18 16h18.53.644231 -0400,
1,0,1,0,,,,,0,0,0,0,,,,,0,0,0,0,1472.0139923999086,,,,,,,,,,,,,2,inactive,,,,,,,,,,,,,,,,1468.8004163997248,1471.9976139999926,1471.9979165997356,1476.9975620997138,1476.9975695996545,1477.0140697997995,1484.997483199928,1484.997483199928,1487.9642360997386,1487.997536199633,1487.997536199633,1487.9810259998776,4.03,4.77,403,476,8,1.2,0.75,pic-present,0,m,0.856908599846065,None,,,,,sub-033,45.3,42.9,46.2,COM3,2024-03-18_16h18.33.456,2024_RDpaindiscrimination_maintask,2023.2.3,59.98645510893208,2024-03-18 16h18.53.644231 -0400,
1,0,1,0,,,,,0,0,0,0,,,,,1,0,1,0,1487.997536199633,,,,,,,,,,,,,3,inactive,,,,,,,,,,,,,,,,,,1487.981549500022,1492.9811203000136,1492.9811269999482,1492.997563699726,1500.981057799887,1500.981057799887,1503.9476939998567,1503.9810580997728,1503.9810580997728,1503.964522099588,3.62,5.18,362,518,8,1.2,0.75,pic-absent,1,n,1.0097161000594497,None,,,,,sub-033,45.3,42.9,46.2,COM3,2024-03-18_16h18.33.456,2024_RDpaindiscrimination_maintask,2023.2.3,59.98645510893208,2024-03-18 16h18.53.644231 -0400,
1,0,1,0,,,,,0,0,0,0,,,,,2,0,2,0,1503.9810580997728,,,,,,,,,,,,,0,active,,,,,,,,,,,,,,,,,,1503.9650333998725,1508.964626699686,1508.9646332999691,1508.9810335999355,1516.964514899999,1516.964514899999,1519.9312768997625,1519.964517599903,1519.964517599903,1519.9480290999636,3.79,5.01,379,501,8,1.2,0.75,pic-absent,1,n,2.4344442998990417,None,,,,,sub-033,45.3,42.9,46.2,COM3,2024-03-18_16h18.33.456,2024_RDpaindiscrimination_maintask,2023.2.3,59.98645510893208,2024-03-18 16h18.53.644231 -0400,
1,0,1,0,,,,,0,0,0,0,,,,,3,0,3,0,1519.964517599903,,,,,,,,,,,,,1,active,,,,,,,,,,,,,,,,,,1519.9484995999373,1524.9480993999168,1524.9481057999656,1524.964557999745,1532.9480038997717,1532.9480038997717,1535.9147139997222,1535.9480129997246,1535.9480129997246,1535.9315810999833,3.83,4.97,383,497,8,1.2,0.75,pic-present,0,m,0.6585900001227856,None,,,,,sub-033,45.3,42.9,46.2,COM3,2024-03-18_16h18.33.456,2024_RDpaindiscrimination_maintask,2023.2.3,59.98645510893208,2024-03-18 16h18.53.644231 -0400,
1,0,1,0,,,,,1,0,1,0,0,0,0,0,,,,,1537.8814201997593,,,,,,1535.9321185997687,1537.8651772998273,,,,,,2,active,45.3,1554.8652333999053,1560.5349661000073,53.499999999999886,5.651,,,,,1537.8655089996755,1542.8649365999736,1542.8649434996769,1542.881426899694,1554.898206999991,1554.8652249998413,,,,,,,,,,,,,,,,,,,,,,,,,,,,,sub-033,45.3,42.9,46.2,COM3,2024-03-18_16h18.33.456,2024_RDpaindiscrimination_maintask,2023.2.3,59.98645510893208,2024-03-18 16h18.53.644231 -0400,
1,0,1,0,,,,,1,0,1,0,1,0,1,0,,,,,1560.5482448996045,,,,,,,,,,,,,3,inactive,45.3,1577.532225499861,1582.9847724996507,8.500000000000167,5.434,,,,,1560.5358131998219,1565.5317866997793,1565.531793399714,1565.5482991999015,1577.5651034996845,1577.5322177000344,,,,,,,,,,,,,,,,,,,,,,,,,,,,,sub-033,45.3,42.9,46.2,COM3,2024-03-18_16h18.33.456,2024_RDpaindiscrimination_maintask,2023.2.3,59.98645510893208,2024-03-18 16h18.53.644231 -0400,
1,0,1,0,,,,,1,0,1,0,,,,,0,0,0,0,1585.8153073997237,,,,,,,,,,,,,0,inactive,,,,,,,,,,,,,,,,1582.9853159999475,1585.7989070997573,1585.7992362999357,1590.798836399801,1590.7988474997692,1590.815308299847,1598.7987239998765,1598.7987239998765,1601.7653663996607,1601.798668500036,1601.798668500036,1601.7822522995993,3.62,5.18,362,518,8,1.2,0.75,pic-absent,1,n,1.0082233999855816,None,,,,,sub-033,45.3,42.9,46.2,COM3,2024-03-18_16h18.33.456,2024_RDpaindiscrimination_maintask,2023.2.3,59.98645510893208,2024-03-18 16h18.53.644231 -0400,
1,0,1,0,,,,,1,0,1,0,,,,,1,0,1,0,1601.798668500036,,,,,,,,,,,,,1,active,,,,,,,,,,,,,,,,,,1601.7827860997058,1606.7822409998626,1606.7822477999143,1606.7987560997717,1614.7821713997982,1614.7821713997982,1617.7488711997867,1617.782243099995,1617.782243099995,1617.7657536999322,3.6,5.2,360,520,8,1.2,0.75,pic-present,0,m,0.5962224998511374,None,,,,,sub-033,45.3,42.9,46.2,COM3,2024-03-18_16h18.33.456,2024_RDpaindiscrimination_maintask,2023.2.3,59.98645510893208,2024-03-18 16h18.53.644231 -0400,
1,0,1,0,,,,,1,0,1,0,,,,,2,0,2,0,1617.782243099995,,,,,,,,,,,,,2,active,,,,,,,,,,,,,,,,,,1617.7662135995924,1622.7657967000268,1622.7658032998443,1622.782254899852,1630.765736399684,1630.765736399684,1633.7323614000343,1633.7657363000326,1633.7657363000326,1633.7492108996958,4.17,4.63,417,463,8,1.2,0.75,pic-present,1,n,0.9365693000145257,None,,,,,sub-033,45.3,42.9,46.2,COM3,2024-03-18_16h18.33.456,2024_RDpaindiscrimination_maintask,2023.2.3,59.98645510893208,2024-03-18 16h18.53.644231 -0400,
1,0,1,0,,,,,1,0,1,0,,,,,3,0,3,0,1633.7657363000326,,,,,,,,,,,,,3,inactive,,,,,,,,,,,,,,,,,,1633.749705999624,1638.7492477996275,1638.7492546997964,1638.7657552999444,1646.7491933000274,1646.7491933000274,1649.7159084999003,1649.7491946998052,1649.7491946998052,1649.7327054999769,4.13,4.67,413,467,8,1.2,0.75,pic-absent,1,n,0.9974159998819232,None,,,,,sub-033,45.3,42.9,46.2,COM3,2024-03-18_16h18.33.456,2024_RDpaindiscrimination_maintask,2023.2.3,59.98645510893208,2024-03-18 16h18.53.644231 -0400,
1,0,1,0,,,,,2,0,2,0,0,0,0,0,,,,,1652.165909299627,,,,,,1649.7332396996208,1652.149633700028,,,,,,0,active,45.3,1669.1498409998603,1675.3674645996653,7.500000000000025,6.199,,,,,1652.1499521997757,1657.149558099918,1657.149565699976,1657.1661010999233,1669.1826895996928,1669.1498329997994,,,,,,,,,,,,,,,,,,,,,,,,,,,,,sub-033,45.3,42.9,46.2,COM3,2024-03-18_16h18.33.456,2024_RDpaindiscrimination_maintask,2023.2.3,59.98645510893208,2024-03-18 16h18.53.644231 -0400,
1,0,1,0,,,,,2,0,2,0,1,0,1,0,,,,,1675.3828468997963,,,,,,,,,,,,,1,inactive,45.3,1692.3666021996178,1698.0675267996266,23.000000000000167,5.682,,,,,1675.3682130998932,1680.3664633999579,1680.3664706000127,1680.382833799813,1692.399671799969,1692.3665947997943,,,,,,,,,,,,,,,,,,,,,,,,,,,,,sub-033,45.3,42.9,46.2,COM3,2024-03-18_16h18.33.456,2024_RDpaindiscrimination_maintask,2023.2.3,59.98645510893208,2024-03-18 16h18.53.644231 -0400,
1,0,1,0,,,,,2,0,2,0,,,,,0,0,0,0,1700.8496951996349,,,,,,,,,,,,,2,active,,,,,,,,,,,,,,,,1698.067708699964,1700.8332929997705,1700.8335933997296,1705.8332438999787,1705.8332508997992,1705.8497452000156,1713.83316189982,1713.83316189982,1716.7998621999286,1716.8331957999617,1716.8331957999617,1716.8167035998777,3.93,4.87,393,487,8,1.2,0.75,pic-present,0,m,1.6256041997112334,None,,,,,sub-033,45.3,42.9,46.2,COM3,2024-03-18_16h18.33.456,2024_RDpaindiscrimination_maintask,2023.2.3,59.98645510893208,2024-03-18 16h18.53.644231 -0400,
1,0,1,0,,,,,2,0,2,0,,,,,1,0,1,0,1716.8331957999617,,,,,,,,,,,,,3,active,,,,,,,,,,,,,,,,,,1716.8172532999888,1721.8167803999968,1721.8167874999344,1721.8332849997096,1729.8167434995994,1729.8167434995994,1732.7833763998933,1732.8166981996037,1732.8166981996037,1732.8002402996644,3.45,5.35,345,535,8,1.2,0.75,pic-absent,1,n,1.0299550998024642,None,,,,,sub-033,45.3,42.9,46.2,COM3,2024-03-18_16h18.33.456,2024_RDpaindiscrimination_maintask,2023.2.3,59.98645510893208,2024-03-18 16h18.53.644231 -0400,
1,0,1,0,,,,,2,0,2,0,,,,,2,0,2,0,1732.8166981996037,,,,,,,,,,,,,0,inactive,,,,,,,,,,,,,,,,,,1732.8007012996823,1737.8002696996555,1737.8002757998183,1737.8167477999814,1745.8002172997221,1745.8002172997221,1748.7668893998489,1748.8003190997988,1748.8003190997988,1748.783731599804,4.42,4.38,442,438,8,1.2,0.75,pic-present,0,m,0.9461977002210915,None,,,,,sub-033,45.3,42.9,46.2,COM3,2024-03-18_16h18.33.456,2024_RDpaindiscrimination_maintask,2023.2.3,59.98645510893208,2024-03-18 16h18.53.644231 -0400,
1,0,1,0,,,,,2,0,2,0,,,,,3,0,3,0,1748.8003190997988,,,,,,,,,,,,,1,inactive,,,,,,,,,,,,,,,,,,1748.784197599627,1753.7837709998712,1753.783777799923,1753.8002724000253,1761.783772799652,1761.783772799652,1764.7504781996831,1764.7838014997542,1764.7838014997542,1764.7674026996829,4.12,4.68,412,468,8,1.2,0.75,pic-present,0,m,1.6190089001320302,None,,,,,sub-033,45.3,42.9,46.2,COM3,2024-03-18_16h18.33.456,2024_RDpaindiscrimination_maintask,2023.2.3,59.98645510893208,2024-03-18 16h18.53.644231 -0400,
1,0,1,0,,,,,3,0,3,0,0,0,0,0,,,,,1766.9170806999318,,,,,,1764.7679224000312,1766.900688599795,,,,,,2,inactive,45.3,1783.9011439997703,1789.652942799963,7.000000000000166,5.733,,,,,1766.9009871999733,1771.9006440998055,1771.9006551997736,1771.9171335999854,1783.9338871999644,1783.9011359997094,,,,,,,,,,,,,,,,,,,,,,,,,,,,,sub-033,45.3,42.9,46.2,COM3,2024-03-18_16h18.33.456,2024_RDpaindiscrimination_maintask,2023.2.3,59.98645510893208,2024-03-18 16h18.53.644231 -0400,
1,0,1,0,,,,,3,0,3,0,1,0,1,0,,,,,1789.667275799904,,,,,,,,,,,,,3,active,45.3,1806.6513462997973,1811.4699997999705,24.499999999999986,4.8,,,,,1789.653696899768,1794.6508712000214,1794.6508776997216,1794.6673355996609,1806.6842143000104,1806.6513384999707,,,,,,,,,,,,,,,,,,,,,,,,,,,,,sub-033,45.3,42.9,46.2,COM3,2024-03-18_16h18.33.456,2024_RDpaindiscrimination_maintask,2023.2.3,59.98645510893208,2024-03-18 16h18.53.644231 -0400,
1,0,1,0,,,,,3,0,3,0,,,,,0,0,0,0,1814.1509618000127,,,,,,,,,,,,,0,active,,,,,,,,,,,,,,,,1811.4702107999474,1814.134513599798,1814.1348438998684,1819.1344303996302,1819.1344371000305,1819.1509189000353,1827.1343344999477,1827.1343344999477,1830.101085699629,1830.1343862996437,1830.1343862996437,1830.117880600039,3.94,4.86,394,486,8,1.2,0.75,pic-absent,1,n,1.7682632999494672,None,,,,,sub-033,45.3,42.9,46.2,COM3,2024-03-18_16h18.33.456,2024_RDpaindiscrimination_maintask,2023.2.3,59.98645510893208,2024-03-18 16h18.53.644231 -0400,
1,0,1,0,,,,,3,0,3,0,,,,,1,0,1,0,1830.1343862996437,,,,,,,,,,,,,1,inactive,,,,,,,,,,,,,,,,,,1830.1185034997761,1835.1179487998597,1835.1179554997943,1835.1343833999708,1843.1179570998065,1843.1179570998065,1846.084664999973,1846.1179951997474,1846.1179951997474,1846.1015458996408,3.8,5.0,380,500,8,1.2,0.75,pic-present,0,m,0.7012669001705945,None,,,,,sub-033,45.3,42.9,46.2,COM3,2024-03-18_16h18.33.456,2024_RDpaindiscrimination_maintask,2023.2.3,59.98645510893208,2024-03-18 16h18.53.644231 -0400,
1,0,1,0,,,,,3,0,3,0,,,,,2,0,2,0,1846.1179951997474,,,,,,,,,,,,,2,inactive,,,,,,,,,,,,,,,,,,1846.1020495998673,1851.1015990995802,1851.1016053999774,1851.1180439000018,1859.1014080997556,1859.1014080997556,1862.0680716997012,1862.101401399821,1862.101401399821,1862.0849293000065,3.56,5.24,356,524,8,1.2,0.75,pic-absent,1,n,1.180473499931395,None,,,,,sub-033,45.3,42.9,46.2,COM3,2024-03-18_16h18.33.456,2024_RDpaindiscrimination_maintask,2023.2.3,59.98645510893208,2024-03-18 16h18.53.644231 -0400,
1,0,1,0,,,,,3,0,3,0,,,,,3,0,3,0,1862.101401399821,,,,,,,,,,,,,3,active,,,,,,,,,,,,,,,,,,1862.0853779995814,1867.0850414996967,1867.0850485996343,1867.1015449999832,1875.084956599865,1875.084956599865,1878.0516479997896,1878.0849849996157,1878.0849849996157,1878.0684473998845,4.71,4.09,471,409,8,1.2,0.75,pic-absent,1,n,0.8170028999447823,None,,,,,sub-033,45.3,42.9,46.2,COM3,2024-03-18_16h18.33.456,2024_RDpaindiscrimination_maintask,2023.2.3,59.98645510893208,2024-03-18 16h18.53.644231 -0400,
,,,,,,,,,,,,,,,,,,,,,,,,,,,,,,,,,,,,,,,,,,,,,,,,,,,,,,,,,,,,,,,,,,,,,,,,,,1878.0688938996755,1881.0020070997998,1881.0020304997452,1891.0020088995807,,,,,,,,,,,
