trials.thisRepN,trials.thisTrialN,trials.thisN,trials.thisIndex,loop_test.thisRepN,loop_test.thisTrialN,loop_test.thisN,loop_test.thisIndex,loop_eval_discri.thisRepN,loop_eval_discri.thisTrialN,loop_eval_discri.thisN,loop_eval_discri.thisIndex,loop_eval.thisRepN,loop_eval.thisTrialN,loop_eval.thisN,loop_eval.thisIndex,loop_discri.thisRepN,loop_discri.thisTrialN,loop_discri.thisN,loop_discri.thisIndex,thisRow.t,notes,Set_up.started,Set_up.stopped,electrode_check.started,electrode_check.stopped,instructions_eval.started,instructions_eval.stopped,pause_5_test.started,pause_5_test.stopped,Phase_Test.started,thermode_locali.started,Phase_Test.stopped,loca_thermode,condition,temp_trial_sent,eval_douleur.started,eval_douleur.stopped,ratingScale.response,ratingScale.rt,thermode_locali.stopped,Fin_test.started,text.started,Fin_test.stopped,pause_5_EVA.started,pause_5_EVA.stopped,tâche_EVA.started,thermode_locali_EVA.started,thermode_locali_EVA.stopped,tâche_EVA.stopped,instructions_discrim.started,instructions_discrim.stopped,pause_5_pic.started,pause_5_pic.stopped,tâche_PIC.started,thermode_locali_pic.started,percu_or.started,responser.started,thermode_locali_pic.stopped,percu_or.stopped,responser.stopped,tâche_PIC.stopped,dur_plateau1,dur_plateau2,dur_plateau1_sent,dur_plateau2_sent,start_plateau_2_resp,dur_pic,dur_rise,pic_presence,pic_response,discrimin_resp.keys,discrimin_resp.rt,discrimin_resp.duration,break_entre_bloc.started,break_entre_bloc.stopped,merci.started,merci.stopped,participant,temp_flat,temp_active,temp_pic_set,com_thermode,date,expName,psychopyVersion,frameRate,expStart,
0,0,0,0,0,0,0,0,,,,,,,,,,,,,200.38227519998327,,0.0135943996720016,187.94917269982398,187.94958069967106,198.14922199957073,198.1492303996347,200.34925239998847,200.3495512995869,205.36591499997303,205.3659257995896,205.382403599564,217.3493228997104,0,inactive,45.4,217.34957709955052,221.48530049994588,34.00000000000009,4.113,,,,,,,,,,,,,,,,,,,,,,,,,,,,,,,,,,,,,,,sub-043,45.4,43.2,46.0,COM3,2024-06-13_09h38.16.038,2024_RDpaindiscrimination_maintask,2023.2.3,59.98102205562966,2024-06-13 09h38.34.678137 -0400,
0,0,0,0,1,0,1,0,,,,,,,,,,,,,221.49927319958806,,,,,,,,221.4861968997866,226.48278409987688,226.48279079981148,226.49930359981954,238.4832954998128,1,inactive,45.4,238.48344179987907,243.6242705998011,56.49999999999994,5.122,238.5160788996145,,,,,,,,,,,,,,,,,,,,,,,,,,,,,,,,,,,,,,sub-043,45.4,43.2,46.0,COM3,2024-06-13_09h38.16.038,2024_RDpaindiscrimination_maintask,2023.2.3,59.98102205562966,2024-06-13 09h38.34.678137 -0400,
0,0,0,0,2,0,2,0,,,,,,,,,,,,,243.64942489983514,,,,,,,,243.62511029979214,248.6328756995499,248.63288239995018,248.64947459986433,260.63300639996305,2,active,43.2,260.6331590996124,268.41768709989265,20.500000000000078,7.766,,,,,,,,,,,,,,,,,,,,,,,,,,,,,,,,,,,,,,,sub-043,45.4,43.2,46.0,COM3,2024-06-13_09h38.16.038,2024_RDpaindiscrimination_maintask,2023.2.3,59.98102205562966,2024-06-13 09h38.34.678137 -0400,
0,0,0,0,3,0,3,0,,,,,,,,,,,,,268.43305049976334,,,,,,,,268.4184697996825,273.4166367999278,273.41664389986545,273.43305859994143,285.41701979981735,3,inactive,45.4,285.4171647997573,289.41847539972514,63.99999999999992,3.982,285.4498791997321,,,,,,,,,,,,,,,,,,,,,,,,,,,,,,,,,,,,,,sub-043,45.4,43.2,46.0,COM3,2024-06-13_09h38.16.038,2024_RDpaindiscrimination_maintask,2023.2.3,59.98102205562966,2024-06-13 09h38.34.678137 -0400,
0,0,0,0,4,0,4,0,,,,,,,,,,,,,289.4332699999213,,,,,,,,289.41927839955315,294.41681309975684,294.41681969957426,294.4332236996852,306.4173006997444,0,active,43.2,306.41744639957324,312.9186802995391,15.000000000000075,6.482,306.45020059961826,,,,,,,,,,,,,,,,,,,,,,,,,,,,,,,,,,,,,,sub-043,45.4,43.2,46.0,COM3,2024-06-13_09h38.16.038,2024_RDpaindiscrimination_maintask,2023.2.3,59.98102205562966,2024-06-13 09h38.34.678137 -0400,
0,0,0,0,5,0,5,0,,,,,,,,,,,,,312.9334383998066,,,,,,,,312.9194875997491,317.9169763997197,317.91698299953714,317.9334845999256,329.9174360996112,1,active,43.2,329.9175851996988,335.4527565999888,30.500000000000107,5.516,329.950387599878,,,,,,,,,,,,,,,,,,,,,,,,,,,,,,,,,,,,,,sub-043,45.4,43.2,46.0,COM3,2024-06-13_09h38.16.038,2024_RDpaindiscrimination_maintask,2023.2.3,59.98102205562966,2024-06-13 09h38.34.678137 -0400,
0,0,0,0,6,0,6,0,,,,,,,,,,,,,335.4670328996144,,,,,,,,335.4535597995855,340.45065369969234,340.4506598999724,340.46713199978694,352.4511231998913,2,inactive,45.4,352.4512841999531,354.9365216996521,67.50000000000004,2.466,352.484028799925,,,,,,,,,,,,,,,,,,,,,,,,,,,,,,,,,,,,,,sub-043,45.4,43.2,46.0,COM3,2024-06-13_09h38.16.038,2024_RDpaindiscrimination_maintask,2023.2.3,59.98102205562966,2024-06-13 09h38.34.678137 -0400,
0,0,0,0,7,0,7,0,,,,,,,,,,,,,354.950668099802,,,,,,,,354.93730399990454,359.934202299919,359.9342089998536,359.9507725997828,371.93460819963366,3,inactive,45.4,371.93476469954476,375.9029265996069,60.0,3.949,371.9674887997098,,,,,,,,,,,,,,,,,,,,,,,,,,,,,,,,,,,,,,sub-043,45.4,43.2,46.0,COM3,2024-06-13_09h38.16.038,2024_RDpaindiscrimination_maintask,2023.2.3,59.98102205562966,2024-06-13 09h38.34.678137 -0400,
0,0,0,0,8,0,8,0,,,,,,,,,,,,,375.91744619980454,,,,,,,,375.9037226997316,380.90099599957466,380.9010026999749,380.9175324998796,392.90149339986965,0,active,43.2,392.9016377995722,397.2700662999414,15.500000000000076,4.349,392.93442789977416,,,,,,,,,,,,,,,,,,,,,,,,,,,,,,,,,,,,,,sub-043,45.4,43.2,46.0,COM3,2024-06-13_09h38.16.038,2024_RDpaindiscrimination_maintask,2023.2.3,59.98102205562966,2024-06-13 09h38.34.678137 -0400,
0,0,0,0,9,0,9,0,,,,,,,,,,,,,397.28433939954266,,,,,,,,397.27081329980865,402.267965299543,402.267972599715,402.28437909996137,414.26833599992096,1,active,43.2,414.2684841998853,417.11963029997423,28.000000000000078,2.832,414.30120999971405,,,,,,,,,,,,,,,,,,,,,,,,,,,,,,,,,,,,,,sub-043,45.4,43.2,46.0,COM3,2024-06-13_09h38.16.038,2024_RDpaindiscrimination_maintask,2023.2.3,59.98102205562966,2024-06-13 09h38.34.678137 -0400,
0,0,0,0,10,0,10,0,,,,,,,,,,,,,417.1345091997646,,,,,,,,417.1204387997277,422.1181299998425,422.1181367998943,422.13456649985164,434.1185226999223,2,inactive,45.4,434.1186695997603,437.78828449966386,64.99999999999984,3.651,434.1514142998494,,,,,,,,,,,,,,,,,,,,,,,,,,,,,,,,,,,,,,sub-043,45.4,43.2,46.0,COM3,2024-06-13_09h38.16.038,2024_RDpaindiscrimination_maintask,2023.2.3,59.98102205562966,2024-06-13 09h38.34.678137 -0400,
0,0,0,0,11,0,11,0,,,,,,,,,,,,,437.80147079983726,,,,,,,,437.78910659998655,442.78501179954037,442.78501849994063,442.80151249980554,454.7853809995577,3,active,43.2,454.7855230998248,458.0538661996834,20.0,3.249,454.8182239998132,,,,,,,,,,,,,,,,,,,,,,,,,,,,,,,,,,,,,,sub-043,45.4,43.2,46.0,COM3,2024-06-13_09h38.16.038,2024_RDpaindiscrimination_maintask,2023.2.3,59.98102205562966,2024-06-13 09h38.34.678137 -0400,
0,0,0,0,12,0,12,0,,,,,,,,,,,,,458.0683434996754,,,,,,,,458.0542845996097,463.051882899832,463.05188980000094,463.0683835996315,475.05228959955275,0,inactive,45.4,475.05243379995227,478.3035523998551,60.50000000000007,3.232,475.08518159994856,,,,,,,,,,,,,,,,,,,,,,,,,,,,,,,,,,,,,,sub-043,45.4,43.2,46.0,COM3,2024-06-13_09h38.16.038,2024_RDpaindiscrimination_maintask,2023.2.3,59.98102205562966,2024-06-13 09h38.34.678137 -0400,
0,0,0,0,13,0,13,0,,,,,,,,,,,,,478.3185574999079,,,,,,,,478.30430929968134,483.30208999989554,483.3020964995958,483.31858969992027,495.3025024998933,1,inactive,45.4,495.3026496996172,498.32228089962155,62.99999999999996,3.001,495.3354319999926,,,,,,,,,,,,,,,,,,,,,,,,,,,,,,,,,,,,,,sub-043,45.4,43.2,46.0,COM3,2024-06-13_09h38.16.038,2024_RDpaindiscrimination_maintask,2023.2.3,59.98102205562966,2024-06-13 09h38.34.678137 -0400,
0,0,0,0,14,0,14,0,,,,,,,,,,,,,498.3354541999288,,,,,,,,498.3230870999396,503.31891179969534,503.3189187999815,503.3354631997645,515.3194495998323,2,active,43.2,515.3195926998742,520.4873944995925,16.500000000000078,5.149,515.3523026998155,,,,,,,,,,,,,,,,,,,,,,,,,,,,,,,,,,,,,,sub-043,45.4,43.2,46.0,COM3,2024-06-13_09h38.16.038,2024_RDpaindiscrimination_maintask,2023.2.3,59.98102205562966,2024-06-13 09h38.34.678137 -0400,
0,0,0,0,15,0,15,0,,,,,,,,,,,,,520.502366299741,,,,,,,,520.4882496995851,525.4859194997698,525.4859260995872,525.5024013998918,537.4862457998097,3,active,43.2,537.4863929999992,541.0544108999893,12.500000000000206,3.549,537.519167999737,,,,,,,,,,,,,,,,,,,,,,,,,,,,,,,,,,,,,,sub-043,45.4,43.2,46.0,COM3,2024-06-13_09h38.16.038,2024_RDpaindiscrimination_maintask,2023.2.3,59.98102205562966,2024-06-13 09h38.34.678137 -0400,
0,0,0,0,,,,,0,0,0,0,0,0,0,0,,,,,567.8195191998966,,,,,,563.853447499685,567.8031927999109,,,,,,0,active,45.4,584.8033774998039,589.0728145996109,22.00000000000017,4.251,,541.054978699889,541.0692344997078,563.8531343997456,567.8035050998442,572.8030146998353,572.8030224996619,572.8196045998484,584.8362895995378,584.8033690997399,,,,,,,,,,,,,,,,,,,,,,,,,,,,,sub-043,45.4,43.2,46.0,COM3,2024-06-13_09h38.16.038,2024_RDpaindiscrimination_maintask,2023.2.3,59.98102205562966,2024-06-13 09h38.34.678137 -0400,
0,0,0,0,,,,,0,0,0,0,1,0,1,0,,,,,589.0863975998946,,,,,,,,,,,,,1,inactive,45.4,606.0702882995829,607.738788199611,50.0,1.649,,,,,589.0735995997675,594.0698753995821,594.0698839998804,594.0863777999766,606.1031767996028,606.0702785998583,,,,,,,,,,,,,,,,,,,,,,,,,,,,,sub-043,45.4,43.2,46.0,COM3,2024-06-13_09h38.16.038,2024_RDpaindiscrimination_maintask,2023.2.3,59.98102205562966,2024-06-13 09h38.34.678137 -0400,
0,0,0,0,,,,,0,0,0,0,,,,,0,0,0,0,622.1866773995571,,,,,,,,,,,,,2,inactive,,,,,,,,,,,,,,,,607.7393141998909,622.170277999714,622.1705879997462,627.1703414996155,627.1703482996672,627.1867221998982,635.1702257995494,635.1702257995494,638.1368926996365,638.1701750997454,638.1701750997454,638.1536898999475,4.52,4.28,451,428,8,1.2,0.75,pic-present,1,n,0.4343138998374343,None,,,,,sub-043,45.4,43.2,46.0,COM3,2024-06-13_09h38.16.038,2024_RDpaindiscrimination_maintask,2023.2.3,59.98102205562966,2024-06-13 09h38.34.678137 -0400,
0,0,0,0,,,,,0,0,0,0,,,,,1,0,1,0,638.1701750997454,,,,,,,,,,,,,3,active,,,,,,,,,,,,,,,,,,638.1543138995767,643.1537235998549,643.1537314997986,643.1702228998765,651.1536393999122,651.1536393999122,654.1203368999995,654.1536757997237,654.1536757997237,654.1372292996384,3.32,5.48,332,548,8,1.2,0.75,pic-absent,0,m,0.9633376998826861,None,,,,,sub-043,45.4,43.2,46.0,COM3,2024-06-13_09h38.16.038,2024_RDpaindiscrimination_maintask,2023.2.3,59.98102205562966,2024-06-13 09h38.34.678137 -0400,
0,0,0,0,,,,,0,0,0,0,,,,,2,0,2,0,654.1536757997237,,,,,,,,,,,,,0,inactive,,,,,,,,,,,,,,,,,,654.137717699632,659.1372205996886,659.1372281997465,659.1536878999323,667.13716619974,667.13716619974,670.1038414998911,670.1371780997142,670.1371780997142,670.1207655998878,3.26,5.54,326,554,8,1.2,0.75,pic-present,0,m,1.2515056999400258,None,,,,,sub-043,45.4,43.2,46.0,COM3,2024-06-13_09h38.16.038,2024_RDpaindiscrimination_maintask,2023.2.3,59.98102205562966,2024-06-13 09h38.34.678137 -0400,
0,0,0,0,,,,,0,0,0,0,,,,,3,0,3,0,670.1371780997142,,,,,,,,,,,,,1,inactive,,,,,,,,,,,,,,,,,,670.1212657997385,675.120777099859,675.1207846999168,675.1372197996825,683.1206455999054,683.1206455999054,686.0873363995925,686.1207152996212,686.1207152996212,686.1041895998642,3.44,5.36,344,536,8,1.2,0.75,pic-absent,0,m,1.2116319998167455,None,,,,,sub-043,45.4,43.2,46.0,COM3,2024-06-13_09h38.16.038,2024_RDpaindiscrimination_maintask,2023.2.3,59.98102205562966,2024-06-13 09h38.34.678137 -0400,
0,0,0,0,,,,,1,0,1,0,0,0,0,0,,,,,688.2207787996158,,,,,,686.1047018999234,688.204451599624,,,,,,2,inactive,45.4,705.2047467995435,708.5737526998855,43.50000000000013,3.35,,,,,688.2047658995725,693.2043132996187,693.2043209997937,693.2206990998238,705.2375769997016,705.204738299828,,,,,,,,,,,,,,,,,,,,,,,,,,,,,sub-043,45.4,43.2,46.0,COM3,2024-06-13_09h38.16.038,2024_RDpaindiscrimination_maintask,2023.2.3,59.98102205562966,2024-06-13 09h38.34.678137 -0400,
0,0,0,0,,,,,1,0,1,0,1,0,1,0,,,,,708.587637399789,,,,,,,,,,,,,3,active,45.4,725.5716675999574,728.5061653996818,32.50000000000003,2.916,,,,,708.574508599937,713.57112879958,713.5711357998662,713.5876905997284,725.6044597998261,725.5716595998965,,,,,,,,,,,,,,,,,,,,,,,,,,,,,sub-043,45.4,43.2,46.0,COM3,2024-06-13_09h38.16.038,2024_RDpaindiscrimination_maintask,2023.2.3,59.98102205562966,2024-06-13 09h38.34.678137 -0400,
0,0,0,0,,,,,1,0,1,0,,,,,0,0,0,0,729.421229199972,,,,,,,,,,,,,0,active,,,,,,,,,,,,,,,,728.5067457999103,729.404774799943,729.4050834998488,734.4047095999122,734.40471719997,734.4212245997041,742.4046377995983,742.4046377995983,745.3713771998882,745.4045886998065,745.4045886998065,745.3880883995444,3.73,5.07,373,507,8,1.2,0.75,pic-absent,1,n,0.7560040997341275,None,,,,,sub-043,45.4,43.2,46.0,COM3,2024-06-13_09h38.16.038,2024_RDpaindiscrimination_maintask,2023.2.3,59.98102205562966,2024-06-13 09h38.34.678137 -0400,
0,0,0,0,,,,,1,0,1,0,,,,,1,0,1,0,745.4045886998065,,,,,,,,,,,,,1,inactive,,,,,,,,,,,,,,,,,,745.3886154997163,750.3882280997932,750.3882354996167,750.404766799882,758.3881703997031,758.3881703997031,761.3548362995498,761.3881851998158,761.3881851998158,761.3717214995995,4.22,4.58,422,458,8,1.2,0.75,pic-present,1,n,0.532316000200808,None,,,,,sub-043,45.4,43.2,46.0,COM3,2024-06-13_09h38.16.038,2024_RDpaindiscrimination_maintask,2023.2.3,59.98102205562966,2024-06-13 09h38.34.678137 -0400,
0,0,0,0,,,,,1,0,1,0,,,,,2,0,2,0,761.3881851998158,,,,,,,,,,,,,2,active,,,,,,,,,,,,,,,,,,761.3722238996997,766.3717844998464,766.3717924999073,766.3882239996456,774.3715952998027,774.3715952998027,777.3383755995892,777.3717119996436,777.3717119996436,777.3552314997651,3.45,5.35,345,535,8,1.2,0.75,pic-absent,0,m,0.4926161002367735,None,,,,,sub-043,45.4,43.2,46.0,COM3,2024-06-13_09h38.16.038,2024_RDpaindiscrimination_maintask,2023.2.3,59.98102205562966,2024-06-13 09h38.34.678137 -0400,
0,0,0,0,,,,,1,0,1,0,,,,,3,0,3,0,777.3717119996436,,,,,,,,,,,,,3,inactive,,,,,,,,,,,,,,,,,,777.3557203998789,782.3552770996466,782.3552845995873,782.3718000999652,790.3551914999261,790.3551914999261,793.3218886996619,793.3552072998136,793.3552072998136,793.338679399807,4.15,4.65,415,465,8,1.2,0.75,pic-present,0,m,1.064963299781084,None,,,,,sub-043,45.4,43.2,46.0,COM3,2024-06-13_09h38.16.038,2024_RDpaindiscrimination_maintask,2023.2.3,59.98102205562966,2024-06-13 09h38.34.678137 -0400,
0,0,0,0,,,,,2,0,2,0,0,0,0,0,,,,,794.2052819998935,,,,,,793.3392181997187,794.1888520997018,,,,,,0,active,45.4,811.1893891999498,814.0401932997629,17.000000000000032,2.832,,,,,794.1891647996381,799.1887783999555,799.1887860996649,799.2051956998184,811.2220775997266,811.1893806997687,,,,,,,,,,,,,,,,,,,,,,,,,,,,,sub-043,45.4,43.2,46.0,COM3,2024-06-13_09h38.16.038,2024_RDpaindiscrimination_maintask,2023.2.3,59.98102205562966,2024-06-13 09h38.34.678137 -0400,
0,0,0,0,,,,,2,0,2,0,1,0,1,0,,,,,814.0554244997911,,,,,,,,,,,,,1,inactive,45.4,831.0393314999528,833.9245679997839,51.00000000000007,2.866,,,,,814.0409280997701,819.0388805996627,819.0388872995973,819.0554757998325,831.0721930996515,831.0393236996606,,,,,,,,,,,,,,,,,,,,,,,,,,,,,sub-043,45.4,43.2,46.0,COM3,2024-06-13_09h38.16.038,2024_RDpaindiscrimination_maintask,2023.2.3,59.98102205562966,2024-06-13 09h38.34.678137 -0400,
0,0,0,0,,,,,2,0,2,0,,,,,0,0,0,0,835.155533099547,,,,,,,,,,,,,2,active,,,,,,,,,,,,,,,,833.9251058995724,835.13916459959,835.1394979995675,840.1391095998697,840.1391166998073,840.1555886999704,848.1390812997706,848.1390812997706,851.1056793997996,851.139027599711,851.139027599711,851.1225531999953,3.37,5.43,337,543,8,1.2,0.75,pic-present,1,n,0.5933570000343025,None,,,,,sub-043,45.4,43.2,46.0,COM3,2024-06-13_09h38.16.038,2024_RDpaindiscrimination_maintask,2023.2.3,59.98102205562966,2024-06-13 09h38.34.678137 -0400,
0,0,0,0,,,,,2,0,2,0,,,,,1,0,1,0,851.139027599711,,,,,,,,,,,,,3,inactive,,,,,,,,,,,,,,,,,,851.1230848999694,856.1227381997742,856.1227454999462,856.139140999876,864.1224652999081,864.1224652999081,867.0891613997519,867.122560699936,867.122560699936,867.1060098996386,4.27,4.53,426,453,8,1.2,0.75,pic-absent,0,m,0.7455879999324679,None,,,,,sub-043,45.4,43.2,46.0,COM3,2024-06-13_09h38.16.038,2024_RDpaindiscrimination_maintask,2023.2.3,59.98102205562966,2024-06-13 09h38.34.678137 -0400,
0,0,0,0,,,,,2,0,2,0,,,,,2,0,2,0,867.122560699936,,,,,,,,,,,,,0,inactive,,,,,,,,,,,,,,,,,,867.1065066996962,872.1061835996807,872.1061912998557,872.1225855997764,880.1059999996796,880.1059999996796,883.0726935998537,883.1061063995585,883.1061063995585,883.0895398999564,3.72,5.08,372,508,8,1.2,0.75,pic-absent,0,m,0.7539197998121381,None,,,,,sub-043,45.4,43.2,46.0,COM3,2024-06-13_09h38.16.038,2024_RDpaindiscrimination_maintask,2023.2.3,59.98102205562966,2024-06-13 09h38.34.678137 -0400,
0,0,0,0,,,,,2,0,2,0,,,,,3,0,3,0,883.1061063995585,,,,,,,,,,,,,1,active,,,,,,,,,,,,,,,,,,883.0900005996227,888.0896404995583,888.0896474998444,888.1061615999788,896.0894981999882,896.0894981999882,899.0561954998411,899.089527099859,899.089527099859,899.0730471997522,3.48,5.32,348,532,8,1.2,0.75,pic-present,0,m,0.6185391000472009,None,,,,,sub-043,45.4,43.2,46.0,COM3,2024-06-13_09h38.16.038,2024_RDpaindiscrimination_maintask,2023.2.3,59.98102205562966,2024-06-13 09h38.34.678137 -0400,
0,0,0,0,,,,,3,0,3,0,0,0,0,0,,,,,900.0729163996875,,,,,,899.0735629997216,900.0566203999333,,,,,,2,inactive,45.4,917.0567569998093,920.00824179966,30.49999999999997,2.933,,,,,900.0569361997768,905.0564544997178,905.0564621998928,905.0730511997826,917.0897418996319,917.0567480996251,,,,,,,,,,,,,,,,,,,,,,,,,,,,,sub-043,45.4,43.2,46.0,COM3,2024-06-13_09h38.16.038,2024_RDpaindiscrimination_maintask,2023.2.3,59.98102205562966,2024-06-13 09h38.34.678137 -0400,
0,0,0,0,,,,,3,0,3,0,1,0,1,0,,,,,920.0230728997849,,,,,,,,,,,,,3,active,45.4,937.0072418996133,940.4923853999935,34.50000000000013,3.466,,,,,920.0090715996921,925.0066664996557,925.0066736997105,925.023230899591,937.0399886998348,937.0072340997867,,,,,,,,,,,,,,,,,,,,,,,,,,,,,sub-043,45.4,43.2,46.0,COM3,2024-06-13_09h38.16.038,2024_RDpaindiscrimination_maintask,2023.2.3,59.98102205562966,2024-06-13 09h38.34.678137 -0400,
0,0,0,0,,,,,3,0,3,0,,,,,0,0,0,0,941.6400139997713,,,,,,,,,,,,,0,inactive,,,,,,,,,,,,,,,,940.4929531998932,941.6236176998354,941.6239461996593,946.6235588998534,946.6235661995597,946.6400926997885,954.6234995997511,954.6234995997511,957.5902965995483,957.6235099998303,957.6235099998303,957.6071000997908,3.41,5.39,341,539,8,1.2,0.75,pic-absent,0,m,0.9012432000599802,None,,,,,sub-043,45.4,43.2,46.0,COM3,2024-06-13_09h38.16.038,2024_RDpaindiscrimination_maintask,2023.2.3,59.98102205562966,2024-06-13 09h38.34.678137 -0400,
0,0,0,0,,,,,3,0,3,0,,,,,1,0,1,0,957.6235099998303,,,,,,,,,,,,,1,active,,,,,,,,,,,,,,,,,,957.607629599981,962.6070861998014,962.6070945998654,962.6235329997726,970.6070235995576,970.6070235995576,973.5737163997255,973.6070828996599,973.6070828996599,973.590558799915,3.79,5.01,379,501,8,1.2,0.75,pic-present,1,n,0.3496269998140633,None,,,,,sub-043,45.4,43.2,46.0,COM3,2024-06-13_09h38.16.038,2024_RDpaindiscrimination_maintask,2023.2.3,59.98102205562966,2024-06-13 09h38.34.678137 -0400,
0,0,0,0,,,,,3,0,3,0,,,,,2,0,2,0,973.6070828996599,,,,,,,,,,,,,2,active,,,,,,,,,,,,,,,,,,973.5910811997019,978.590550399851,978.5905577996746,978.6071014995687,986.5904701999389,986.5904701999389,989.5738762998953,989.5905277999118,989.5905277999118,989.5740847997367,3.35,5.45,335,545,8,1.2,0.75,pic-present,1,n,0.35751730017364025,None,,,,,sub-043,45.4,43.2,46.0,COM3,2024-06-13_09h38.16.038,2024_RDpaindiscrimination_maintask,2023.2.3,59.98102205562966,2024-06-13 09h38.34.678137 -0400,
0,0,0,0,,,,,3,0,3,0,,,,,3,0,3,0,989.5905277999118,,,,,,,,,,,,,3,active,,,,,,,,,,,,,,,,,,989.5745759997517,994.5740816998295,994.57408869965,994.5905981999822,1002.5740159996785,1002.5740159996785,1005.5407086997293,1005.5739622996189,1005.5739622996189,1005.5575372995809,3.86,4.94,386,494,8,1.2,0.75,pic-absent,0,m,0.45811229990795255,None,,,,,sub-043,45.4,43.2,46.0,COM3,2024-06-13_09h38.16.038,2024_RDpaindiscrimination_maintask,2023.2.3,59.98102205562966,2024-06-13 09h38.34.678137 -0400,
1,0,1,0,0,0,0,0,,,,,,,,,,,,,1074.4914058996364,,,,1066.6085980995558,1074.008394099772,1074.0084016998298,1074.4750373996794,1074.4753464995883,1079.4750064997934,1079.475012899842,1079.4914608998224,1091.47541049961,0,inactive,45.4,1091.4756227997132,1094.5262708999217,24.000000000000163,3.028,1091.5081918998621,,,,,,,,,,,,,,,,,,,,,,,,,,,,,,,,,,1005.5580088999122,1066.6084383996204,,,sub-043,45.4,43.2,46.0,COM3,2024-06-13_09h38.16.038,2024_RDpaindiscrimination_maintask,2023.2.3,59.98102205562966,2024-06-13 09h38.34.678137 -0400,
1,0,1,0,1,0,1,0,,,,,,,,,,,,,1094.5416862997226,,,,,,,,1094.5271661998704,1099.5252047996037,1099.5252112997696,1099.5416900999844,1111.5256135999225,1,inactive,45.4,1111.5257563996129,1113.7932407995686,40.0,2.249,1111.5584920998663,,,,,,,,,,,,,,,,,,,,,,,,,,,,,,,,,,,,,,sub-043,45.4,43.2,46.0,COM3,2024-06-13_09h38.16.038,2024_RDpaindiscrimination_maintask,2023.2.3,59.98102205562966,2024-06-13 09h38.34.678137 -0400,
1,0,1,0,2,0,2,0,,,,,,,,,,,,,1113.8086175997742,,,,,,,,1113.794021599926,1118.792104799766,1118.792111699935,1118.8086493997835,1130.7924842997454,2,active,43.2,1130.7926366999745,1134.8451640997082,19.000000000000213,4.034,1130.825398199726,,,,,,,,,,,,,,,,,,,,,,,,,,,,,,,,,,,,,,sub-043,45.4,43.2,46.0,COM3,2024-06-13_09h38.16.038,2024_RDpaindiscrimination_maintask,2023.2.3,59.98102205562966,2024-06-13 09h38.34.678137 -0400,
1,0,1,0,3,0,3,0,,,,,,,,,,,,,1134.8587823999114,,,,,,,,1134.845936899539,1139.8423366998322,1139.842343499884,1139.8587549999356,1151.8426645998843,3,inactive,45.4,1151.8428123998456,1154.4936086996458,56.00000000000005,2.632,1151.8755615996197,,,,,,,,,,,,,,,,,,,,,,,,,,,,,,,,,,,,,,sub-043,45.4,43.2,46.0,COM3,2024-06-13_09h38.16.038,2024_RDpaindiscrimination_maintask,2023.2.3,59.98102205562966,2024-06-13 09h38.34.678137 -0400,
1,0,1,0,4,0,4,0,,,,,,,,,,,,,1154.508908599615,,,,,,,,1154.4944143998437,1159.492607199587,1159.49261379987,1159.5089907995425,1171.493007699959,0,active,43.2,1171.4931570999324,1174.8280549999326,8.000000000000167,3.316,1171.5258192997426,,,,,,,,,,,,,,,,,,,,,,,,,,,,,,,,,,,,,,sub-043,45.4,43.2,46.0,COM3,2024-06-13_09h38.16.038,2024_RDpaindiscrimination_maintask,2023.2.3,59.98102205562966,2024-06-13 09h38.34.678137 -0400,
1,0,1,0,5,0,5,0,,,,,,,,,,,,,1174.8425367996097,,,,,,,,1174.8288799999282,1179.8259984999895,1179.8260048995726,1179.8424706999213,1191.8265036996454,1,active,43.2,1191.8266510996036,1196.34464189969,14.500000000000075,4.499,1191.8593641999178,,,,,,,,,,,,,,,,,,,,,,,,,,,,,,,,,,,,,,sub-043,45.4,43.2,46.0,COM3,2024-06-13_09h38.16.038,2024_RDpaindiscrimination_maintask,2023.2.3,59.98102205562966,2024-06-13 09h38.34.678137 -0400,
1,0,1,0,6,0,6,0,,,,,,,,,,,,,1196.3592925998382,,,,,,,,1196.345441899728,1201.342861799989,1201.3428684999235,1201.3593722996302,1213.343340299558,2,inactive,45.4,1213.3434880999848,1216.7628265996464,59.999999999999865,3.4,1213.3762931996025,,,,,,,,,,,,,,,,,,,,,,,,,,,,,,,,,,,,,,sub-043,45.4,43.2,46.0,COM3,2024-06-13_09h38.16.038,2024_RDpaindiscrimination_maintask,2023.2.3,59.98102205562966,2024-06-13 09h38.34.678137 -0400,
1,0,1,0,7,0,7,0,,,,,,,,,,,,,1216.7762372996658,,,,,,,,1216.7636358998716,1221.759743399918,1221.7597503997386,1221.7762749996036,1233.7603232995607,3,inactive,45.4,1233.7604711996391,1236.195621599909,50.00000000000011,2.416,1233.7931518997066,,,,,,,,,,,,,,,,,,,,,,,,,,,,,,,,,,,,,,sub-043,45.4,43.2,46.0,COM3,2024-06-13_09h38.16.038,2024_RDpaindiscrimination_maintask,2023.2.3,59.98102205562966,2024-06-13 09h38.34.678137 -0400,
1,0,1,0,8,0,8,0,,,,,,,,,,,,,1236.2098666997626,,,,,,,,1236.1966800997034,1241.1934119998477,1241.193418499548,1241.2099002995528,1253.1937647997402,0,active,43.2,1253.1939138998277,1257.7289300998673,11.500000000000073,4.516,1253.2266892995685,,,,,,,,,,,,,,,,,,,,,,,,,,,,,,,,,,,,,,sub-043,45.4,43.2,46.0,COM3,2024-06-13_09h38.16.038,2024_RDpaindiscrimination_maintask,2023.2.3,59.98102205562966,2024-06-13 09h38.34.678137 -0400,
1,0,1,0,9,0,9,0,,,,,,,,,,,,,1257.743413799908,,,,,,,,1257.7291931998916,1262.7268872996792,1262.726894099731,1262.7434643995948,1274.7273906995542,1,inactive,45.4,1274.7275351998396,1276.9968344997615,64.99999999999991,2.251,1274.7602413999848,,,,,,,,,,,,,,,,,,,,,,,,,,,,,,,,,,,,,,sub-043,45.4,43.2,46.0,COM3,2024-06-13_09h38.16.038,2024_RDpaindiscrimination_maintask,2023.2.3,59.98102205562966,2024-06-13 09h38.34.678137 -0400,
1,0,1,0,10,0,10,0,,,,,,,,,,,,,1277.0103106996976,,,,,,,,1276.9976622997783,1281.9938661996275,1281.9938733996823,1282.0102580999956,1293.994286999572,2,active,43.2,1293.9944290998392,1296.4454649998806,16.000000000000032,2.432,1294.02707439987,,,,,,,,,,,,,,,,,,,,,,,,,,,,,,,,,,,,,,sub-043,45.4,43.2,46.0,COM3,2024-06-13_09h38.16.038,2024_RDpaindiscrimination_maintask,2023.2.3,59.98102205562966,2024-06-13 09h38.34.678137 -0400,
1,0,1,0,11,0,11,0,,,,,,,,,,,,,1296.4605230996385,,,,,,,,1296.446249799803,1301.4440148998983,1301.4440211998299,1301.4605230996385,1313.4443682995625,3,active,43.2,1313.4445136999711,1317.1789493998513,14.000000000000137,3.715,1313.4772561998107,,,,,,,,,,,,,,,,,,,,,,,,,,,,,,,,,,,,,,sub-043,45.4,43.2,46.0,COM3,2024-06-13_09h38.16.038,2024_RDpaindiscrimination_maintask,2023.2.3,59.98102205562966,2024-06-13 09h38.34.678137 -0400,
1,0,1,0,12,0,12,0,,,,,,,,,,,,,1317.1940006995574,,,,,,,,1317.1797539996915,1322.177463799715,1322.177471799776,1322.1939645996317,1334.1779845999554,0,inactive,45.4,1334.178130199667,1338.2459116997197,60.499999999999865,4.049,1334.2108738999814,,,,,,,,,,,,,,,,,,,,,,,,,,,,,,,,,,,,,,sub-043,45.4,43.2,46.0,COM3,2024-06-13_09h38.16.038,2024_RDpaindiscrimination_maintask,2023.2.3,59.98102205562966,2024-06-13 09h38.34.678137 -0400,
1,0,1,0,13,0,13,0,,,,,,,,,,,,,1338.2607916998677,,,,,,,,1338.2466891999356,1343.2443485995755,1343.2443555998616,1343.260855099652,1355.2448394997045,1,active,43.2,1355.2449918999337,1357.2640541996807,12.999999999999993,2.0,1355.277769099921,,,,,,,,,,,,,,,,,,,,,,,,,,,,,,,,,,,,,,sub-043,45.4,43.2,46.0,COM3,2024-06-13_09h38.16.038,2024_RDpaindiscrimination_maintask,2023.2.3,59.98102205562966,2024-06-13 09h38.34.678137 -0400,
1,0,1,0,14,0,14,0,,,,,,,,,,,,,1357.2776626995765,,,,,,,,1357.2648311997764,1362.2612575995736,1362.2612644997425,1362.277732799761,1374.2618866995908,2,inactive,45.4,1374.2620542999357,1376.4634802998044,67.49999999999997,2.182,1374.2946362998337,,,,,,,,,,,,,,,,,,,,,,,,,,,,,,,,,,,,,,sub-043,45.4,43.2,46.0,COM3,2024-06-13_09h38.16.038,2024_RDpaindiscrimination_maintask,2023.2.3,59.98102205562966,2024-06-13 09h38.34.678137 -0400,
1,0,1,0,15,0,15,0,,,,,,,,,,,,,1376.4778652996756,,,,,,,,1376.4642355996184,1381.4614187995903,1381.4614264997654,1381.477915899828,1393.4619142999873,3,active,43.2,1393.4620644999668,1397.2635484999046,3.5000000000000937,3.783,1393.494697699789,,,,,,,,,,,,,,,,,,,,,,,,,,,,,,,,,,,,,,sub-043,45.4,43.2,46.0,COM3,2024-06-13_09h38.16.038,2024_RDpaindiscrimination_maintask,2023.2.3,59.98102205562966,2024-06-13 09h38.34.678137 -0400,
1,0,1,0,,,,,0,0,0,0,0,0,0,0,,,,,1428.4117321996018,,,,,,1426.5456410995685,1428.3953478997573,,,,,,0,inactive,45.4,1445.3956368998624,1447.9143354999833,44.499999999999915,2.5,,1397.26411609957,1397.2780791996047,1426.5453133997507,1428.3956293999217,1433.3953620996326,1433.3953690999188,1433.4117928999476,1445.428611899726,1445.3956284997985,,,,,,,,,,,,,,,,,,,,,,,,,,,,,sub-043,45.4,43.2,46.0,COM3,2024-06-13_09h38.16.038,2024_RDpaindiscrimination_maintask,2023.2.3,59.98102205562966,2024-06-13 09h38.34.678137 -0400,
1,0,1,0,,,,,0,0,0,0,1,0,1,0,,,,,1447.9286630996503,,,,,,,,,,,,,1,active,45.4,1464.9125789999962,1468.1473031998612,44.50000000000006,3.216,,,,,1447.915113199968,1452.9122213996015,1452.9122289996594,1452.9286821996793,1464.9455414996482,1464.9125712998211,,,,,,,,,,,,,,,,,,,,,,,,,,,,,sub-043,45.4,43.2,46.0,COM3,2024-06-13_09h38.16.038,2024_RDpaindiscrimination_maintask,2023.2.3,59.98102205562966,2024-06-13 09h38.34.678137 -0400,
1,0,1,0,,,,,0,0,0,0,,,,,0,0,0,0,1469.2122078998946,,,,,,,,,,,,,2,inactive,,,,,,,,,,,,,,,,1468.1478307996877,1469.195965099614,1469.1962702996098,1474.1958256997168,1474.1958327996545,1474.2122484999709,1482.1956732999533,1482.1956732999533,1485.1623726999387,1485.1956977997907,1485.1956977997907,1485.1792486999184,3.69,5.11,369,511,8,1.2,0.75,pic-absent,0,m,0.6036505000665784,None,,,,,sub-043,45.4,43.2,46.0,COM3,2024-06-13_09h38.16.038,2024_RDpaindiscrimination_maintask,2023.2.3,59.98102205562966,2024-06-13 09h38.34.678137 -0400,
1,0,1,0,,,,,0,0,0,0,,,,,1,0,1,0,1485.1956977997907,,,,,,,,,,,,,3,active,,,,,,,,,,,,,,,,,,1485.179768299684,1490.1792554999702,1490.1792630995624,1490.19575969968,1498.1792050995864,1498.1792050995864,1501.1458727996796,1501.1791739999317,1501.1791739999317,1501.1626900997944,3.26,5.54,326,554,8,1.2,0.75,pic-present,1,n,0.5204238002188504,None,,,,,sub-043,45.4,43.2,46.0,COM3,2024-06-13_09h38.16.038,2024_RDpaindiscrimination_maintask,2023.2.3,59.98102205562966,2024-06-13 09h38.34.678137 -0400,
1,0,1,0,,,,,0,0,0,0,,,,,2,0,2,0,1501.1791739999317,,,,,,,,,,,,,0,inactive,,,,,,,,,,,,,,,,,,1501.1631842995994,1506.1626881998964,1506.1626953999512,1506.179220599588,1514.1626419997774,1514.1626419997774,1517.1293383999728,1517.1627104999498,1517.1627104999498,1517.146194699686,4.32,4.48,432,448,8,1.2,0.75,pic-absent,0,m,0.5773197999224067,None,,,,,sub-043,45.4,43.2,46.0,COM3,2024-06-13_09h38.16.038,2024_RDpaindiscrimination_maintask,2023.2.3,59.98102205562966,2024-06-13 09h38.34.678137 -0400,
1,0,1,0,,,,,0,0,0,0,,,,,3,0,3,0,1517.1627104999498,,,,,,,,,,,,,1,active,,,,,,,,,,,,,,,,,,1517.1466650995426,1522.1462205997668,1522.146228699945,1522.1627641995437,1530.1461387998424,1530.1461387998424,1533.1128413998522,1533.1461745998822,1533.1461745998822,1533.1297308998182,3.67,5.13,367,513,8,1.2,0.75,pic-present,0,m,0.6296586999669671,None,,,,,sub-043,45.4,43.2,46.0,COM3,2024-06-13_09h38.16.038,2024_RDpaindiscrimination_maintask,2023.2.3,59.98102205562966,2024-06-13 09h38.34.678137 -0400,
1,0,1,0,,,,,1,0,1,0,0,0,0,0,,,,,1533.7961852997541,,,,,,1533.1302240998484,1533.7798215998337,,,,,,2,active,45.4,1550.780164799653,1553.7822565999813,33.99999999999996,2.983,,,,,1533.7801106995903,1538.7797271995805,1538.7797348997556,1538.7962350999005,1550.8130276999436,1550.7801561998203,,,,,,,,,,,,,,,,,,,,,,,,,,,,,sub-043,45.4,43.2,46.0,COM3,2024-06-13_09h38.16.038,2024_RDpaindiscrimination_maintask,2023.2.3,59.98102205562966,2024-06-13 09h38.34.678137 -0400,
1,0,1,0,,,,,1,0,1,0,1,0,1,0,,,,,1553.7964509995654,,,,,,,,,,,,,3,inactive,45.4,1570.780468699988,1572.7316939998418,30.0,1.932,,,,,1553.7830610997044,1558.7799470997415,1558.7799541996792,1558.7964452998713,1570.8133904999122,1570.7804605998099,,,,,,,,,,,,,,,,,,,,,,,,,,,,,sub-043,45.4,43.2,46.0,COM3,2024-06-13_09h38.16.038,2024_RDpaindiscrimination_maintask,2023.2.3,59.98102205562966,2024-06-13 09h38.34.678137 -0400,
1,0,1,0,,,,,1,0,1,0,,,,,0,0,0,0,1573.3633762998506,,,,,,,,,,,,,0,inactive,,,,,,,,,,,,,,,,1572.7322080996819,1573.3469096999615,1573.3472485998645,1578.3468420999125,1578.3468493996188,1578.3633546996862,1586.3467844999395,1586.3467844999395,1589.3134644995444,1589.3468057997525,1589.3468057997525,1589.3303677998483,3.87,4.93,387,493,8,1.2,0.75,pic-present,0,m,1.045105299912393,None,,,,,sub-043,45.4,43.2,46.0,COM3,2024-06-13_09h38.16.038,2024_RDpaindiscrimination_maintask,2023.2.3,59.98102205562966,2024-06-13 09h38.34.678137 -0400,
1,0,1,0,,,,,1,0,1,0,,,,,1,0,1,0,1589.3468057997525,,,,,,,,,,,,,1,active,,,,,,,,,,,,,,,,,,1589.330927199684,1594.3303754995577,1594.3303835997358,1594.3468671999872,1602.3302968996577,1602.3302968996577,1605.29693219997,1605.3303023995832,1605.3303023995832,1605.3137708995491,4.2,4.6,420,459,8,1.2,0.75,pic-absent,0,m,0.3935096999630332,None,,,,,sub-043,45.4,43.2,46.0,COM3,2024-06-13_09h38.16.038,2024_RDpaindiscrimination_maintask,2023.2.3,59.98102205562966,2024-06-13 09h38.34.678137 -0400,
1,0,1,0,,,,,1,0,1,0,,,,,2,0,2,0,1605.3303023995832,,,,,,,,,,,,,2,inactive,,,,,,,,,,,,,,,,,,1605.314261699561,1610.313854099717,1610.313861799892,1610.3303487999365,1618.3138115997426,1618.3138115997426,1621.2804677998647,1621.3138473997824,1621.3138473997824,1621.297321499791,3.38,5.42,338,542,8,1.2,0.75,pic-present,1,n,0.4020748999901116,None,,,,,sub-043,45.4,43.2,46.0,COM3,2024-06-13_09h38.16.038,2024_RDpaindiscrimination_maintask,2023.2.3,59.98102205562966,2024-06-13 09h38.34.678137 -0400,
1,0,1,0,,,,,1,0,1,0,,,,,3,0,3,0,1621.3138473997824,,,,,,,,,,,,,3,active,,,,,,,,,,,,,,,,,,1621.2977867997251,1626.2973894998431,1626.2973967995495,1626.313824699726,1634.2972601996735,1634.2972601996735,1637.263960399665,1637.2973443996161,1637.2973443996161,1637.2808100995608,3.98,4.82,398,482,8,1.2,0.75,pic-absent,0,m,0.36274150013923645,None,,,,,sub-043,45.4,43.2,46.0,COM3,2024-06-13_09h38.16.038,2024_RDpaindiscrimination_maintask,2023.2.3,59.98102205562966,2024-06-13 09h38.34.678137 -0400,
1,0,1,0,,,,,2,0,2,0,0,0,0,0,,,,,1637.7640207996592,,,,,,1637.281339999754,1637.7476054998115,,,,,,0,active,45.4,1654.7478230996057,1656.6490416997112,38.49999999999997,1.882,,,,,1637.7479168996215,1642.7474837996997,1642.7474913997576,1642.7640718999319,1654.7807805999182,1654.747814499773,,,,,,,,,,,,,,,,,,,,,,,,,,,,,sub-043,45.4,43.2,46.0,COM3,2024-06-13_09h38.16.038,2024_RDpaindiscrimination_maintask,2023.2.3,59.98102205562966,2024-06-13 09h38.34.678137 -0400,
1,0,1,0,,,,,2,0,2,0,1,0,1,0,,,,,1656.6642179996707,,,,,,,,,,,,,1,inactive,45.4,1673.6482874997891,1676.616784399841,31.499999999999968,2.95,,,,,1656.6498380997218,1661.647795399651,1661.6478025997058,1661.6642897999845,1673.6809877995402,1673.6482791998424,,,,,,,,,,,,,,,,,,,,,,,,,,,,,sub-043,45.4,43.2,46.0,COM3,2024-06-13_09h38.16.038,2024_RDpaindiscrimination_maintask,2023.2.3,59.98102205562966,2024-06-13 09h38.34.678137 -0400,
1,0,1,0,,,,,2,0,2,0,,,,,0,0,0,0,1677.4310677996837,,,,,,,,,,,,,2,active,,,,,,,,,,,,,,,,1676.61731459992,1677.4147145999596,1677.415037299972,1682.414646699559,1682.4146537999623,1682.4311108998954,1690.414516999852,1690.414516999852,1693.381231599953,1693.4145660996437,1693.4145660996437,1693.3980933995917,3.65,5.15,365,515,8,1.2,0.75,pic-absent,0,m,1.2084977002814412,None,,,,,sub-043,45.4,43.2,46.0,COM3,2024-06-13_09h38.16.038,2024_RDpaindiscrimination_maintask,2023.2.3,59.98102205562966,2024-06-13 09h38.34.678137 -0400,
1,0,1,0,,,,,2,0,2,0,,,,,1,0,1,0,1693.4145660996437,,,,,,,,,,,,,3,inactive,,,,,,,,,,,,,,,,,,1693.398616399616,1698.398129899986,1698.3981375996955,1698.414613199886,1706.398073299788,1706.398073299788,1709.3647656999528,1709.3980963998474,1709.3980963998474,1709.3816346996464,3.62,5.18,362,518,8,1.2,0.75,pic-present,0,m,0.42180339992046356,None,,,,,sub-043,45.4,43.2,46.0,COM3,2024-06-13_09h38.16.038,2024_RDpaindiscrimination_maintask,2023.2.3,59.98102205562966,2024-06-13 09h38.34.678137 -0400,
1,0,1,0,,,,,2,0,2,0,,,,,2,0,2,0,1709.3980963998474,,,,,,,,,,,,,0,active,,,,,,,,,,,,,,,,,,1709.382120499853,1714.381599499844,1714.3816069997847,1714.3981158998795,1722.3816453996114,1722.3816453996114,1725.3482275996357,1725.381586899981,1725.381586899981,1725.3650821996853,3.67,5.13,367,513,8,1.2,0.75,pic-absent,0,m,0.3378381999209523,None,,,,,sub-043,45.4,43.2,46.0,COM3,2024-06-13_09h38.16.038,2024_RDpaindiscrimination_maintask,2023.2.3,59.98102205562966,2024-06-13 09h38.34.678137 -0400,
1,0,1,0,,,,,2,0,2,0,,,,,3,0,3,0,1725.381586899981,,,,,,,,,,,,,1,inactive,,,,,,,,,,,,,,,,,,1725.3655850999057,1730.3651228998788,1730.3651306997053,1730.381630699616,1738.3650685995817,1738.3650685995817,1741.3317316998728,1741.3650637995452,1741.3650637995452,1741.348616599571,4.12,4.68,412,468,8,1.2,0.75,pic-absent,1,n,0.34683150006458163,None,,,,,sub-043,45.4,43.2,46.0,COM3,2024-06-13_09h38.16.038,2024_RDpaindiscrimination_maintask,2023.2.3,59.98102205562966,2024-06-13 09h38.34.678137 -0400,
1,0,1,0,,,,,3,0,3,0,0,0,0,0,,,,,1741.998410699889,,,,,,1741.3491329997778,1741.9820004999638,,,,,,2,inactive,45.4,1758.982060499955,1761.2674123998731,51.0000000000001,2.266,,,,,1741.9823162998073,1746.9820060995407,1746.9820139999501,1746.9984576995485,,1758.9820525995456,,,,,,,,,,,,,,,,,,,,,,,,,,,,,sub-043,45.4,43.2,46.0,COM3,2024-06-13_09h38.16.038,2024_RDpaindiscrimination_maintask,2023.2.3,59.98102205562966,2024-06-13 09h38.34.678137 -0400,
1,0,1,0,,,,,3,0,3,0,1,0,1,0,,,,,1761.282080899924,,,,,,,,,,,,,3,active,45.4,1778.2660648999736,1781.0846956996247,27.50000000000015,2.8,,,,,1761.2681938996539,1766.2655751998536,1766.2655841996893,1766.2820872999728,1778.298878699541,1778.2660571997985,,,,,,,,,,,,,,,,,,,,,,,,,,,,,sub-043,45.4,43.2,46.0,COM3,2024-06-13_09h38.16.038,2024_RDpaindiscrimination_maintask,2023.2.3,59.98102205562966,2024-06-13 09h38.34.678137 -0400,
1,0,1,0,,,,,3,0,3,0,,,,,0,0,0,0,1781.9655414996669,,,,,,,,,,,,,0,active,,,,,,,,,,,,,,,,1781.0852207997814,1781.9491490996443,1781.949460899923,1786.949085299857,1786.9490927997977,1786.965525899548,1794.9489244995639,1794.9489244995639,1797.915629599709,1797.9489592998289,1797.9489592998289,1797.932498099748,4.19,4.61,419,461,8,1.2,0.75,pic-present,1,n,0.3628384000621736,None,,,,,sub-043,45.4,43.2,46.0,COM3,2024-06-13_09h38.16.038,2024_RDpaindiscrimination_maintask,2023.2.3,59.98102205562966,2024-06-13 09h38.34.678137 -0400,
1,0,1,0,,,,,3,0,3,0,,,,,1,0,1,0,1797.9489592998289,,,,,,,,,,,,,1,inactive,,,,,,,,,,,,,,,,,,1797.933055699803,1802.9325007000007,1802.9325081999414,1802.9490034999326,1810.9324296996929,1810.9324296996929,1813.8991279997863,1813.932470899541,1813.932470899541,1813.9159728996456,3.81,4.99,381,499,8,1.2,0.75,pic-absent,1,n,0.32649590028449893,None,,,,,sub-043,45.4,43.2,46.0,COM3,2024-06-13_09h38.16.038,2024_RDpaindiscrimination_maintask,2023.2.3,59.98102205562966,2024-06-13 09h38.34.678137 -0400,
1,0,1,0,,,,,3,0,3,0,,,,,2,0,2,0,1813.932470899541,,,,,,,,,,,,,2,active,,,,,,,,,,,,,,,,,,1813.9165386999957,1818.9160023997538,1818.9160102996975,1818.9325894997455,1826.9159284997731,1826.9159284997731,1829.8826667997055,1829.9159942995757,1829.9159942995757,1829.8995044999756,3.95,4.85,395,484,8,1.2,0.75,pic-present,0,m,0.5229754000902176,None,,,,,sub-043,45.4,43.2,46.0,COM3,2024-06-13_09h38.16.038,2024_RDpaindiscrimination_maintask,2023.2.3,59.98102205562966,2024-06-13 09h38.34.678137 -0400,
1,0,1,0,,,,,3,0,3,0,,,,,3,0,3,0,1829.9159942995757,,,,,,,,,,,,,3,inactive,,,,,,,,,,,,,,,,,,1829.8999704997987,1834.8996321996674,1834.8996391999535,1834.9160468997434,1842.899465299677,1842.899465299677,1845.8661654996686,1845.8994914996438,1845.8994914996438,1845.8830255996436,3.85,4.95,385,495,8,1.2,0.75,pic-present,0,m,0.3916424997150898,None,,,,,sub-043,45.4,43.2,46.0,COM3,2024-06-13_09h38.16.038,2024_RDpaindiscrimination_maintask,2023.2.3,59.98102205562966,2024-06-13 09h38.34.678137 -0400,
,,,,,,,,,,,,,,,,,,,,,,,,,,,,,,,,,,,,,,,,,,,,,,,,,,,,,,,,,,,,,,,,,,,,,,,,,,1845.883492599707,1849.1998531999998,1849.1998733999208,1859.199886399787,,,,,,,,,,,
