trials.thisRepN,trials.thisTrialN,trials.thisN,trials.thisIndex,loop_test.thisRepN,loop_test.thisTrialN,loop_test.thisN,loop_test.thisIndex,loop_eval_discri.thisRepN,loop_eval_discri.thisTrialN,loop_eval_discri.thisN,loop_eval_discri.thisIndex,loop_eval.thisRepN,loop_eval.thisTrialN,loop_eval.thisN,loop_eval.thisIndex,loop_discri.thisRepN,loop_discri.thisTrialN,loop_discri.thisN,loop_discri.thisIndex,thisRow.t,notes,Set_up.started,Set_up.stopped,electrode_check.started,electrode_check.stopped,instructions_eval.started,instructions_eval.stopped,pause_5_test.started,pause_5_test.stopped,Phase_Test.started,thermode_locali.started,Phase_Test.stopped,loca_thermode,condition,temp_trial_sent,eval_douleur.started,eval_douleur.stopped,ratingScale.response,ratingScale.rt,thermode_locali.stopped,Fin_test.started,text.started,Fin_test.stopped,pause_5_EVA.started,pause_5_EVA.stopped,tâche_EVA.started,thermode_locali_EVA.started,thermode_locali_EVA.stopped,tâche_EVA.stopped,instructions_discrim.started,instructions_discrim.stopped,pause_5_pic.started,pause_5_pic.stopped,tâche_PIC.started,thermode_locali_pic.started,percu_or.started,responser.started,thermode_locali_pic.stopped,percu_or.stopped,responser.stopped,tâche_PIC.stopped,dur_plateau1,dur_plateau2,dur_plateau1_sent,dur_plateau2_sent,start_plateau_2_resp,dur_pic,dur_rise,pic_presence,pic_response,discrimin_resp.keys,discrimin_resp.rt,discrimin_resp.duration,break_entre_bloc.started,break_entre_bloc.stopped,merci.started,merci.stopped,participant,temp_flat,temp_active,temp_pic_set,com_thermode,date,expName,psychopyVersion,frameRate,expStart,
0,0,0,0,0,0,0,0,,,,,,,,,,,,,175.50217649999968,,0.016783199999736098,170.98574899999994,170.98615879999988,172.63574609999978,172.63575469999978,175.46914849999985,175.46943479999982,180.48560179999959,180.48560819999966,180.5022130999996,192.48573699999997,0,active,45.5,192.48598349999975,194.20421929999975,0.0,1.696,,,,,,,,,,,,,,,,,,,,,,,,,,,,,,,,,,,,,,,sub-045,47.2,45.5,48.1,COM3,2024-07-04_09h41.32.613,2024_RDpaindiscrimination_maintask,2023.2.3,59.99854803515895,2024-07-04 09h41.51.662769 -0400,
0,0,0,0,1,0,1,0,,,,,,,,,,,,,194.21897309999986,,,,,,,,194.2051237999999,199.20260999999982,199.2026168999996,199.219016,211.20304699999997,1,inactive,47.2,211.20318739999993,213.42238769999994,13.500000000000066,2.2,211.23591699999997,,,,,,,,,,,,,,,,,,,,,,,,,,,,,,,,,,,,,,sub-045,47.2,45.5,48.1,COM3,2024-07-04_09h41.32.613,2024_RDpaindiscrimination_maintask,2023.2.3,59.99854803515895,2024-07-04 09h41.51.662769 -0400,
0,0,0,0,2,0,2,0,,,,,,,,,,,,,213.43598669999983,,,,,,,,213.4231781999997,218.41957709999997,218.41958320000003,218.43600389999983,230.42000059999964,2,active,45.5,230.42014359999985,234.87130499999967,3.000000000000067,4.432,230.45279469999969,,,,,,,,,,,,,,,,,,,,,,,,,,,,,,,,,,,,,,sub-045,47.2,45.5,48.1,COM3,2024-07-04_09h41.32.613,2024_RDpaindiscrimination_maintask,2023.2.3,59.99854803515895,2024-07-04 09h41.51.662769 -0400,
0,0,0,0,3,0,3,0,,,,,,,,,,,,,234.88606889999983,,,,,,,,234.8720847999998,239.86972839999999,239.8697345999999,239.88625919999959,251.8701705999997,3,active,45.5,251.8703074,255.0064097999998,10.500000000000133,3.117,251.90304799999967,,,,,,,,,,,,,,,,,,,,,,,,,,,,,,,,,,,,,,sub-045,47.2,45.5,48.1,COM3,2024-07-04_09h41.32.613,2024_RDpaindiscrimination_maintask,2023.2.3,59.99854803515895,2024-07-04 09h41.51.662769 -0400,
0,0,0,0,4,0,4,0,,,,,,,,,,,,,255.01975939999966,,,,,,,,255.00721589999966,260.00330719999965,260.0033134999999,260.019816,272.00373469999977,0,inactive,47.2,272.0038758999999,273.78885949999994,45.500000000000014,1.766,272.03662719999966,,,,,,,,,,,,,,,,,,,,,,,,,,,,,,,,,,,,,,sub-045,47.2,45.5,48.1,COM3,2024-07-04_09h41.32.613,2024_RDpaindiscrimination_maintask,2023.2.3,59.99854803515895,2024-07-04 09h41.51.662769 -0400,
0,0,0,0,5,0,5,0,,,,,,,,,,,,,273.8032968999996,,,,,,,,273.7897089999997,278.78686359999983,278.7868698999996,278.80326279999963,290.78732079999963,1,inactive,47.2,290.7874647999997,295.07250639999984,16.50000000000021,4.266,290.82017799999994,,,,,,,,,,,,,,,,,,,,,,,,,,,,,,,,,,,,,,sub-045,47.2,45.5,48.1,COM3,2024-07-04_09h41.32.613,2024_RDpaindiscrimination_maintask,2023.2.3,59.99854803515895,2024-07-04 09h41.51.662769 -0400,
0,0,0,0,6,0,6,0,,,,,,,,,,,,,295.08688519999987,,,,,,,,295.0733098999999,300.0704420999996,300.07044859999996,300.0869045999998,312.0708930999999,2,active,45.5,312.07103149999966,314.10590189999994,2.5000000000000226,2.016,312.10373709999976,,,,,,,,,,,,,,,,,,,,,,,,,,,,,,,,,,,,,,sub-045,47.2,45.5,48.1,COM3,2024-07-04_09h41.32.613,2024_RDpaindiscrimination_maintask,2023.2.3,59.99854803515895,2024-07-04 09h41.51.662769 -0400,
0,0,0,0,7,0,7,0,,,,,,,,,,,,,314.1204422999999,,,,,,,,314.1066971,319.1039999999998,319.1040063999999,319.12045769999986,331.1043732999997,3,inactive,47.2,331.1045147,332.738828,45.49999999999998,1.615,331.13732189999973,,,,,,,,,,,,,,,,,,,,,,,,,,,,,,,,,,,,,,sub-045,47.2,45.5,48.1,COM3,2024-07-04_09h41.32.613,2024_RDpaindiscrimination_maintask,2023.2.3,59.99854803515895,2024-07-04 09h41.51.662769 -0400,
0,0,0,0,8,0,8,0,,,,,,,,,,,,,332.7539981,,,,,,,,332.7394674999996,337.73754599999984,337.7375523999999,337.75406599999997,349.7380051,0,inactive,47.2,349.7381475999996,352.4389484999997,22.00000000000017,2.682,349.77085279999983,,,,,,,,,,,,,,,,,,,,,,,,,,,,,,,,,,,,,,sub-045,47.2,45.5,48.1,COM3,2024-07-04_09h41.32.613,2024_RDpaindiscrimination_maintask,2023.2.3,59.99854803515895,2024-07-04 09h41.51.662769 -0400,
0,0,0,0,9,0,9,0,,,,,,,,,,,,,352.45412039999974,,,,,,,,352.43971220000003,357.4376801999997,357.4376863999996,357.4541717999996,369.43829749999986,1,active,45.5,369.43845729999975,371.3568256999997,0.0,1.899,369.4710828999996,,,,,,,,,,,,,,,,,,,,,,,,,,,,,,,,,,,,,,sub-045,47.2,45.5,48.1,COM3,2024-07-04_09h41.32.613,2024_RDpaindiscrimination_maintask,2023.2.3,59.99854803515895,2024-07-04 09h41.51.662769 -0400,
0,0,0,0,10,0,10,0,,,,,,,,,,,,,371.3710809999998,,,,,,,,371.3576496999999,376.35456269999986,376.3545691999998,376.3710990999998,388.3550991999996,2,inactive,47.2,388.35523729999977,391.0562786999999,35.00000000000006,2.682,388.38794849999977,,,,,,,,,,,,,,,,,,,,,,,,,,,,,,,,,,,,,,sub-045,47.2,45.5,48.1,COM3,2024-07-04_09h41.32.613,2024_RDpaindiscrimination_maintask,2023.2.3,59.99854803515895,2024-07-04 09h41.51.662769 -0400,
0,0,0,0,11,0,11,0,,,,,,,,,,,,,391.07133299999987,,,,,,,,391.0567844999996,396.0547623999996,396.0547689,396.07126949999974,408.0551892999997,3,inactive,47.2,408.0553286999998,409.9905140999999,36.49999999999995,1.916,408.08806559999994,,,,,,,,,,,,,,,,,,,,,,,,,,,,,,,,,,,,,,sub-045,47.2,45.5,48.1,COM3,2024-07-04_09h41.32.613,2024_RDpaindiscrimination_maintask,2023.2.3,59.99854803515895,2024-07-04 09h41.51.662769 -0400,
0,0,0,0,12,0,12,0,,,,,,,,,,,,,410.00478989999965,,,,,,,,409.99129089999997,414.9883540999999,414.98836140000003,415.0048112999998,426.9887463,0,active,45.5,426.98888529999977,429.8905470999998,5.000000000000093,2.883,427.0216355999996,,,,,,,,,,,,,,,,,,,,,,,,,,,,,,,,,,,,,,sub-045,47.2,45.5,48.1,COM3,2024-07-04_09h41.32.613,2024_RDpaindiscrimination_maintask,2023.2.3,59.99854803515895,2024-07-04 09h41.51.662769 -0400,
0,0,0,0,13,0,13,0,,,,,,,,,,,,,429.90498929999967,,,,,,,,429.89132219999965,434.88854319999973,434.8885495999998,434.9050413,446.8889795,1,active,45.5,446.8891162,450.57448909999994,0.0,3.666,446.9218581,,,,,,,,,,,,,,,,,,,,,,,,,,,,,,,,,,,,,,sub-045,47.2,45.5,48.1,COM3,2024-07-04_09h41.32.613,2024_RDpaindiscrimination_maintask,2023.2.3,59.99854803515895,2024-07-04 09h41.51.662769 -0400,
0,0,0,0,14,0,14,0,,,,,,,,,,,,,450.58853009999984,,,,,,,,450.57524509999985,455.5720879999999,455.5720941999998,455.58858499999997,467.57253760000003,2,inactive,47.2,467.57268069999964,469.77461879999964,39.999999999999964,2.183,467.6054783999998,,,,,,,,,,,,,,,,,,,,,,,,,,,,,,,,,,,,,,sub-045,47.2,45.5,48.1,COM3,2024-07-04_09h41.32.613,2024_RDpaindiscrimination_maintask,2023.2.3,59.99854803515895,2024-07-04 09h41.51.662769 -0400,
0,0,0,0,15,0,15,0,,,,,,,,,,,,,469.78875419999986,,,,,,,,469.7753915999997,474.77231189999975,474.7723183999997,474.78879989999996,486.7728049999996,3,active,45.5,486.7729451,490.77373659999967,8.000000000000167,3.982,486.80560849999983,,,,,,,,,,,,,,,,,,,,,,,,,,,,,,,,,,,,,,sub-045,47.2,45.5,48.1,COM3,2024-07-04_09h41.32.613,2024_RDpaindiscrimination_maintask,2023.2.3,59.99854803515895,2024-07-04 09h41.51.662769 -0400,
0,0,0,0,,,,,0,0,0,0,0,0,0,0,,,,,540.5062765999996,,,,,,539.6069088999998,540.4898756999996,,,,,,0,inactive,47.2,557.4901848999998,559.4256689999997,39.999999999999964,1.917,,490.7742850999998,490.78903569999966,539.6065784999996,540.4901630999998,545.4898233999998,545.4898304999997,545.5063857999999,557.5231427999997,557.4901766999997,,,,,,,,,,,,,,,,,,,,,,,,,,,,,sub-045,47.2,45.5,48.1,COM3,2024-07-04_09h41.32.613,2024_RDpaindiscrimination_maintask,2023.2.3,59.99854803515895,2024-07-04 09h41.51.662769 -0400,
0,0,0,0,,,,,0,0,0,0,1,0,1,0,,,,,559.4398370999997,,,,,,,,,,,,,1,active,47.2,576.4238387,579.6085461999996,13.500000000000172,3.166,,,,,559.4264123999997,564.4233732999996,564.4233801,564.4399351999996,576.4567358999998,576.4238312999996,,,,,,,,,,,,,,,,,,,,,,,,,,,,,sub-045,47.2,45.5,48.1,COM3,2024-07-04_09h41.32.613,2024_RDpaindiscrimination_maintask,2023.2.3,59.99854803515895,2024-07-04 09h41.51.662769 -0400,
0,0,0,0,,,,,0,0,0,0,,,,,0,0,0,0,580.7901115999998,,,,,,,,,,,,,2,active,,,,,,,,,,,,,,,,579.6090633999997,580.7737674,580.7740743999998,585.7736628999996,585.7736698999997,585.7901059999999,593.7736041999997,593.7736041999997,596.7403028999997,596.7736649999997,596.7736649999997,596.7571559999997,4.41,4.39,441,438,8,1.2,0.75,pic-absent,0,m,0.8170310000000427,None,,,,,sub-045,47.2,45.5,48.1,COM3,2024-07-04_09h41.32.613,2024_RDpaindiscrimination_maintask,2023.2.3,59.99854803515895,2024-07-04 09h41.51.662769 -0400,
0,0,0,0,,,,,0,0,0,0,,,,,1,0,1,0,596.7736649999997,,,,,,,,,,,,,3,inactive,,,,,,,,,,,,,,,,,,596.7577443999999,601.7572396999999,601.7572481999996,601.7736944999997,609.7571710999996,609.7571710999996,612.7238647999998,612.7571527999999,612.7571527999999,612.7406680999998,4.19,4.61,419,461,8,1.2,0.75,pic-present,1,n,0.5453449999999975,None,,,,,sub-045,47.2,45.5,48.1,COM3,2024-07-04_09h41.32.613,2024_RDpaindiscrimination_maintask,2023.2.3,59.99854803515895,2024-07-04 09h41.51.662769 -0400,
0,0,0,0,,,,,0,0,0,0,,,,,2,0,2,0,612.7571527999999,,,,,,,,,,,,,0,active,,,,,,,,,,,,,,,,,,612.7411258999996,617.7407147999998,617.7407226,617.7572318999996,625.7406372999999,625.7406372999999,628.7073441999996,628.7406768999999,628.7406768999999,628.7241955,4.31,4.49,430,449,8,1.2,0.75,pic-absent,0,m,0.8820175999999265,None,,,,,sub-045,47.2,45.5,48.1,COM3,2024-07-04_09h41.32.613,2024_RDpaindiscrimination_maintask,2023.2.3,59.99854803515895,2024-07-04 09h41.51.662769 -0400,
0,0,0,0,,,,,0,0,0,0,,,,,3,0,3,0,628.7406768999999,,,,,,,,,,,,,1,active,,,,,,,,,,,,,,,,,,628.7247187999997,633.7242222999998,633.7242289999999,633.7407565999997,641.7241642999998,641.7241642999998,644.6909167999997,644.7241927999999,644.7241927999999,644.7077033999999,3.76,5.04,376,504,8,1.2,0.75,pic-absent,0,m,0.514662799999769,None,,,,,sub-045,47.2,45.5,48.1,COM3,2024-07-04_09h41.32.613,2024_RDpaindiscrimination_maintask,2023.2.3,59.99854803515895,2024-07-04 09h41.51.662769 -0400,
0,0,0,0,,,,,1,0,1,0,0,0,0,0,,,,,645.7075485,,,,,,644.7081920999999,645.6912153999997,,,,,,2,active,47.2,662.6914136,665.2273154999998,15.000000000000103,2.517,,,,,645.6915239999998,650.6911078999997,650.6911154999998,650.7075659999996,662.7244022,662.6914054999997,,,,,,,,,,,,,,,,,,,,,,,,,,,,,sub-045,47.2,45.5,48.1,COM3,2024-07-04_09h41.32.613,2024_RDpaindiscrimination_maintask,2023.2.3,59.99854803515895,2024-07-04 09h41.51.662769 -0400,
0,0,0,0,,,,,1,0,1,0,1,0,1,0,,,,,665.2411069999998,,,,,,,,,,,,,3,inactive,47.2,682.2249807999997,684.1258792999997,42.500000000000064,1.883,,,,,665.2280584999999,670.2246499999997,670.2246563999997,670.2411951999998,682.2579774999999,682.2249729,,,,,,,,,,,,,,,,,,,,,,,,,,,,,sub-045,47.2,45.5,48.1,COM3,2024-07-04_09h41.32.613,2024_RDpaindiscrimination_maintask,2023.2.3,59.99854803515895,2024-07-04 09h41.51.662769 -0400,
0,0,0,0,,,,,1,0,1,0,,,,,0,0,0,0,684.6580479999998,,,,,,,,,,,,,0,inactive,,,,,,,,,,,,,,,,684.1264053,684.6418294999999,684.6421323,689.6417036999997,689.6417110999996,689.6580826,697.6415488999996,697.6415488999996,700.6082815,700.6416283999997,700.6416283999997,700.6251305999999,4.45,4.35,445,434,8,1.2,0.75,pic-present,0,m,0.4977460999998584,None,,,,,sub-045,47.2,45.5,48.1,COM3,2024-07-04_09h41.32.613,2024_RDpaindiscrimination_maintask,2023.2.3,59.99854803515895,2024-07-04 09h41.51.662769 -0400,
0,0,0,0,,,,,1,0,1,0,,,,,1,0,1,0,700.6416283999997,,,,,,,,,,,,,1,inactive,,,,,,,,,,,,,,,,,,700.6256817999997,705.6251738999999,705.6251810999997,705.6416084999996,713.6250866,713.6250866,716.5917494999999,716.6251401999998,716.6251401999998,716.6086425999997,4.21,4.59,421,459,8,1.2,0.75,pic-absent,0,m,0.409164900000178,None,,,,,sub-045,47.2,45.5,48.1,COM3,2024-07-04_09h41.32.613,2024_RDpaindiscrimination_maintask,2023.2.3,59.99854803515895,2024-07-04 09h41.51.662769 -0400,
0,0,0,0,,,,,1,0,1,0,,,,,2,0,2,0,716.6251401999998,,,,,,,,,,,,,2,active,,,,,,,,,,,,,,,,,,716.6091159999996,721.6087316999997,721.6087386999998,721.6251955999996,729.6086258,729.6086258,732.5753235999996,732.6086559999999,732.6086559999999,732.5921641999998,4.5,4.3,450,430,8,1.2,0.75,pic-present,1,n,0.46252270000013596,None,,,,,sub-045,47.2,45.5,48.1,COM3,2024-07-04_09h41.32.613,2024_RDpaindiscrimination_maintask,2023.2.3,59.99854803515895,2024-07-04 09h41.51.662769 -0400,
0,0,0,0,,,,,1,0,1,0,,,,,3,0,3,0,732.6086559999999,,,,,,,,,,,,,3,active,,,,,,,,,,,,,,,,,,732.5926184999998,737.5922066999997,737.5922138999999,737.6087076999997,745.5921361999999,745.5921361999999,748.5588415999996,748.5921324999999,748.5921324999999,748.5756899999997,3.58,5.22,358,522,8,1.2,0.75,pic-present,0,m,0.42261240000016187,None,,,,,sub-045,47.2,45.5,48.1,COM3,2024-07-04_09h41.32.613,2024_RDpaindiscrimination_maintask,2023.2.3,59.99854803515895,2024-07-04 09h41.51.662769 -0400,
0,0,0,0,,,,,2,0,2,0,0,0,0,0,,,,,749.3587862999998,,,,,,748.5761629999997,749.3424640999997,,,,,,0,active,47.2,766.3426947999997,768.5282094999998,26.50000000000012,2.166,,,,,749.3427769999998,754.3424034999998,754.3424104999999,754.3588775999997,766.3757376999997,766.3426858999997,,,,,,,,,,,,,,,,,,,,,,,,,,,,,sub-045,47.2,45.5,48.1,COM3,2024-07-04_09h41.32.613,2024_RDpaindiscrimination_maintask,2023.2.3,59.99854803515895,2024-07-04 09h41.51.662769 -0400,
0,0,0,0,,,,,2,0,2,0,1,0,1,0,,,,,768.5422811999997,,,,,,,,,,,,,1,inactive,47.2,785.5263075999997,787.0944135,15.000000000000032,1.549,,,,,768.5289587999996,773.5258355999999,773.5258423,773.5423412999999,785.5592973999997,785.5262997,,,,,,,,,,,,,,,,,,,,,,,,,,,,,sub-045,47.2,45.5,48.1,COM3,2024-07-04_09h41.32.613,2024_RDpaindiscrimination_maintask,2023.2.3,59.99854803515895,2024-07-04 09h41.51.662769 -0400,
0,0,0,0,,,,,2,0,2,0,,,,,0,0,0,0,788.0426303999998,,,,,,,,,,,,,2,inactive,,,,,,,,,,,,,,,,787.0949363999998,788.0262718999998,788.0265768999998,793.0262463999998,793.0262527,793.0426505999999,801.0261388999998,801.0261388999998,803.9928219999997,804.0260694999997,804.0260694999997,804.0133499999997,3.4,5.4,340,540,8,1.2,0.75,pic-absent,0,m,0.49613859999999477,None,,,,,sub-045,47.2,45.5,48.1,COM3,2024-07-04_09h41.32.613,2024_RDpaindiscrimination_maintask,2023.2.3,59.99854803515895,2024-07-04 09h41.51.662769 -0400,
0,0,0,0,,,,,2,0,2,0,,,,,1,0,1,0,804.0260694999997,,,,,,,,,,,,,3,active,,,,,,,,,,,,,,,,,,804.0139172999998,809.0097011999997,809.0097078999997,809.0262158999999,817.0262418999996,817.0262418999996,819.9762895999997,820.0263621999998,820.0263621999998,820.0098525999997,3.57,5.23,357,523,8,1.2,0.75,pic-present,1,n,0.44493229999989126,None,,,,,sub-045,47.2,45.5,48.1,COM3,2024-07-04_09h41.32.613,2024_RDpaindiscrimination_maintask,2023.2.3,59.99854803515895,2024-07-04 09h41.51.662769 -0400,
0,0,0,0,,,,,2,0,2,0,,,,,2,0,2,0,820.0263621999998,,,,,,,,,,,,,0,inactive,,,,,,,,,,,,,,,,,,820.0103092999998,825.0098427999997,825.0098500999998,825.0263252999998,833.0097637999997,833.0097637999997,835.9765416,836.0098826999997,836.0098826999997,835.993375,4.1,4.7,409,470,8,1.2,0.75,pic-absent,0,m,0.35657149999997273,None,,,,,sub-045,47.2,45.5,48.1,COM3,2024-07-04_09h41.32.613,2024_RDpaindiscrimination_maintask,2023.2.3,59.99854803515895,2024-07-04 09h41.51.662769 -0400,
0,0,0,0,,,,,2,0,2,0,,,,,3,0,3,0,836.0098826999997,,,,,,,,,,,,,1,inactive,,,,,,,,,,,,,,,,,,835.9938380999997,840.9934070999998,840.993414,841.0098530999999,848.9933779999997,848.9933779999997,851.9599395999999,851.9932747999997,851.9932747999997,851.9767869999996,3.4,5.4,340,540,8,1.2,0.75,pic-absent,0,m,0.5970290000000205,None,,,,,sub-045,47.2,45.5,48.1,COM3,2024-07-04_09h41.32.613,2024_RDpaindiscrimination_maintask,2023.2.3,59.99854803515895,2024-07-04 09h41.51.662769 -0400,
0,0,0,0,,,,,3,0,3,0,0,0,0,0,,,,,852.8099432999998,,,,,,851.9772666999997,852.7935474999999,,,,,,2,inactive,47.2,869.7940224999998,873.3626115999996,19.000000000000078,3.55,,,,,852.7938476999998,857.7935414999997,857.7935484,857.8100019999997,869.8268070999998,869.7940145999996,,,,,,,,,,,,,,,,,,,,,,,,,,,,,sub-045,47.2,45.5,48.1,COM3,2024-07-04_09h41.32.613,2024_RDpaindiscrimination_maintask,2023.2.3,59.99854803515895,2024-07-04 09h41.51.662769 -0400,
0,0,0,0,,,,,3,0,3,0,1,0,1,0,,,,,873.3768517999997,,,,,,,,,,,,,3,active,47.2,890.3607327999998,892.7452839999996,29.000000000000146,2.366,,,,,873.3628439999998,878.3604338,878.3604403999998,878.37691,890.3937225,890.360725,,,,,,,,,,,,,,,,,,,,,,,,,,,,,sub-045,47.2,45.5,48.1,COM3,2024-07-04_09h41.32.613,2024_RDpaindiscrimination_maintask,2023.2.3,59.99854803515895,2024-07-04 09h41.51.662769 -0400,
0,0,0,0,,,,,3,0,3,0,,,,,0,0,0,0,893.4270855999998,,,,,,,,,,,,,0,active,,,,,,,,,,,,,,,,892.745821,893.4107574999998,893.4110615,898.4106447999998,898.4106518999997,898.4271497,906.4105599,906.4105599,909.3772818999996,909.4106425,909.4106425,909.3941498999998,3.94,4.86,394,486,8,1.2,0.75,pic-present,0,m,0.47201259999974354,None,,,,,sub-045,47.2,45.5,48.1,COM3,2024-07-04_09h41.32.613,2024_RDpaindiscrimination_maintask,2023.2.3,59.99854803515895,2024-07-04 09h41.51.662769 -0400,
0,0,0,0,,,,,3,0,3,0,,,,,1,0,1,0,909.4106425,,,,,,,,,,,,,1,active,,,,,,,,,,,,,,,,,,909.3947218999997,914.3942474999999,914.3942543999997,914.4106967999996,922.3942301999996,922.3942301999996,925.3608322999999,925.3941634999996,925.3941634999996,925.3777219999997,4.38,4.42,438,442,8,1.2,0.75,pic-absent,0,m,0.4325755999998364,None,,,,,sub-045,47.2,45.5,48.1,COM3,2024-07-04_09h41.32.613,2024_RDpaindiscrimination_maintask,2023.2.3,59.99854803515895,2024-07-04 09h41.51.662769 -0400,
0,0,0,0,,,,,3,0,3,0,,,,,2,0,2,0,925.3941634999996,,,,,,,,,,,,,2,inactive,,,,,,,,,,,,,,,,,,925.3781691999998,930.3777320999998,930.3777390999999,930.3942133999999,938.3777332999998,938.3777332999998,941.3443496999998,941.3776978999999,941.3776978999999,941.3612014,3.48,5.32,348,532,8,1.2,0.75,pic-present,1,n,0.44127149999985704,None,,,,,sub-045,47.2,45.5,48.1,COM3,2024-07-04_09h41.32.613,2024_RDpaindiscrimination_maintask,2023.2.3,59.99854803515895,2024-07-04 09h41.51.662769 -0400,
0,0,0,0,,,,,3,0,3,0,,,,,3,0,3,0,941.3776978999999,,,,,,,,,,,,,3,inactive,,,,,,,,,,,,,,,,,,941.3616517999999,946.3612527,946.3612644999998,946.3777419999997,954.3611642999999,954.3611642999999,957.3278859999996,957.3611326,957.3611326,957.3447192999997,3.36,5.44,336,544,8,1.2,0.75,pic-present,1,n,0.4971850999995695,None,,,,,sub-045,47.2,45.5,48.1,COM3,2024-07-04_09h41.32.613,2024_RDpaindiscrimination_maintask,2023.2.3,59.99854803515895,2024-07-04 09h41.51.662769 -0400,
1,0,1,0,0,0,0,0,,,,,,,,,,,,,1027.1286162999995,,,,1023.8956582000001,1025.6622191999995,1025.6622269999998,1027.1122115999997,1027.1125066999994,1032.1121752,1032.1121816999994,1032.1286818999997,1044.1126718999994,0,inactive,47.2,1044.1129062,1047.1802541999996,34.50000000000013,3.043,1044.1455003,,,,,,,,,,,,,,,,,,,,,,,,,,,,,,,,,,957.3451832999999,1023.8955273000001,,,sub-045,47.2,45.5,48.1,COM3,2024-07-04_09h41.32.613,2024_RDpaindiscrimination_maintask,2023.2.3,59.99854803515895,2024-07-04 09h41.51.662769 -0400,
1,0,1,0,1,0,1,0,,,,,,,,,,,,,1047.1956056999998,,,,,,,,1047.1811111999996,1052.1791703,1052.1791787000002,1052.1956547999998,1064.1795873,1,active,45.5,1064.1797293,1066.5971414999995,3.5000000000000226,2.398,1064.2125178999995,,,,,,,,,,,,,,,,,,,,,,,,,,,,,,,,,,,,,,sub-045,47.2,45.5,48.1,COM3,2024-07-04_09h41.32.613,2024_RDpaindiscrimination_maintask,2023.2.3,59.99854803515895,2024-07-04 09h41.51.662769 -0400,
1,0,1,0,2,0,2,0,,,,,,,,,,,,,1066.6125131,,,,,,,,1066.5978994999996,1071.5960447999996,1071.5960506000001,1071.6126104999994,1083.5964892000002,2,active,45.5,1083.5966306,1084.8145306999995,4.4999999999999964,1.2,1083.6293638999996,,,,,,,,,,,,,,,,,,,,,,,,,,,,,,,,,,,,,,sub-045,47.2,45.5,48.1,COM3,2024-07-04_09h41.32.613,2024_RDpaindiscrimination_maintask,2023.2.3,59.99854803515895,2024-07-04 09h41.51.662769 -0400,
1,0,1,0,3,0,3,0,,,,,,,,,,,,,1084.8293646000002,,,,,,,,1084.8153475999998,1089.8129428000002,1089.8129490000001,1089.8294319999995,1101.8133879999996,3,inactive,47.2,1101.8135272,1105.8978095000002,35.00000000000003,4.066,1101.8462353999994,,,,,,,,,,,,,,,,,,,,,,,,,,,,,,,,,,,,,,sub-045,47.2,45.5,48.1,COM3,2024-07-04_09h41.32.613,2024_RDpaindiscrimination_maintask,2023.2.3,59.99854803515895,2024-07-04 09h41.51.662769 -0400,
1,0,1,0,4,0,4,0,,,,,,,,,,,,,1105.9130313999995,,,,,,,,1105.8986458999998,1110.8964778,1110.8964845,1110.9129750000002,1122.8969356999996,0,active,45.5,1122.8970811999998,1126.3200581,4.500000000000164,3.404,1122.9297785999997,,,,,,,,,,,,,,,,,,,,,,,,,,,,,,,,,,,,,,sub-045,47.2,45.5,48.1,COM3,2024-07-04_09h41.32.613,2024_RDpaindiscrimination_maintask,2023.2.3,59.99854803515895,2024-07-04 09h41.51.662769 -0400,
1,0,1,0,5,0,5,0,,,,,,,,,,,,,1126.3298348999997,,,,,,,,1126.3208581,1131.3133988,1131.3134057999996,1131.3298568,1143.3138159999999,1,inactive,47.2,1143.3139578999999,1145.5318316000003,26.499999999999986,2.199,1143.3466950000002,,,,,,,,,,,,,,,,,,,,,,,,,,,,,,,,,,,,,,sub-045,47.2,45.5,48.1,COM3,2024-07-04_09h41.32.613,2024_RDpaindiscrimination_maintask,2023.2.3,59.99854803515895,2024-07-04 09h41.51.662769 -0400,
1,0,1,0,6,0,6,0,,,,,,,,,,,,,1145.5467262000002,,,,,,,,1145.5326003999999,1150.5302909000002,1150.5302968999995,1150.5467715999994,1162.5309089000002,2,inactive,47.2,1162.5310504,1165.2492954,46.00000000000012,2.7,1162.5635825,,,,,,,,,,,,,,,,,,,,,,,,,,,,,,,,,,,,,,sub-045,47.2,45.5,48.1,COM3,2024-07-04_09h41.32.613,2024_RDpaindiscrimination_maintask,2023.2.3,59.99854803515895,2024-07-04 09h41.51.662769 -0400,
1,0,1,0,7,0,7,0,,,,,,,,,,,,,1165.2636611999997,,,,,,,,1165.2501118,1170.2472176,1170.2472238,1170.2637108999998,1182.2476545,3,active,45.5,1182.2477947999996,1184.2154022999994,0.0,1.949,1182.2805116999998,,,,,,,,,,,,,,,,,,,,,,,,,,,,,,,,,,,,,,sub-045,47.2,45.5,48.1,COM3,2024-07-04_09h41.32.613,2024_RDpaindiscrimination_maintask,2023.2.3,59.99854803515895,2024-07-04 09h41.51.662769 -0400,
1,0,1,0,8,0,8,0,,,,,,,,,,,,,1184.2305435999997,,,,,,,,1184.2157378000002,1189.2140969000002,1189.2141027999996,1189.2305642000001,1201.2145443,0,active,45.5,1201.2146879000002,1204.2654449000001,2.0000000000001297,3.032,1201.2473953999997,,,,,,,,,,,,,,,,,,,,,,,,,,,,,,,,,,,,,,sub-045,47.2,45.5,48.1,COM3,2024-07-04_09h41.32.613,2024_RDpaindiscrimination_maintask,2023.2.3,59.99854803515895,2024-07-04 09h41.51.662769 -0400,
1,0,1,0,9,0,9,0,,,,,,,,,,,,,1204.2807758,,,,,,,,1204.2662518999996,1209.2643331,1209.2643395999994,1209.2808663999995,1221.2648692000002,1,inactive,47.2,1221.2650144,1223.6659599999994,32.99999999999996,2.382,1221.2976309999995,,,,,,,,,,,,,,,,,,,,,,,,,,,,,,,,,,,,,,sub-045,47.2,45.5,48.1,COM3,2024-07-04_09h41.32.613,2024_RDpaindiscrimination_maintask,2023.2.3,59.99854803515895,2024-07-04 09h41.51.662769 -0400,
1,0,1,0,10,0,10,0,,,,,,,,,,,,,1223.6810675999996,,,,,,,,1223.6665285999998,1228.664651,1228.6646567999996,1228.6810586000001,1240.6651127999994,2,active,45.5,1240.6652525,1244.6011108000002,5.500000000000201,3.917,1240.6979746999996,,,,,,,,,,,,,,,,,,,,,,,,,,,,,,,,,,,,,,sub-045,47.2,45.5,48.1,COM3,2024-07-04_09h41.32.613,2024_RDpaindiscrimination_maintask,2023.2.3,59.99854803515895,2024-07-04 09h41.51.662769 -0400,
1,0,1,0,11,0,11,0,,,,,,,,,,,,,1244.6147194999994,,,,,,,,1244.6019228999994,1249.5982403999997,1249.5982470999998,1249.6147258,1261.598669,3,active,45.5,1261.5988091,1264.0170651999997,0.5000000000000229,2.396,1261.6315346000001,,,,,,,,,,,,,,,,,,,,,,,,,,,,,,,,,,,,,,sub-045,47.2,45.5,48.1,COM3,2024-07-04_09h41.32.613,2024_RDpaindiscrimination_maintask,2023.2.3,59.99854803515895,2024-07-04 09h41.51.662769 -0400,
1,0,1,0,12,0,12,0,,,,,,,,,,,,,1264.0315547,,,,,,,,1264.0178230000001,1269.0151405999995,1269.0151471999998,1269.0316177999994,1281.0155709,0,inactive,47.2,1281.0157099999997,1284.0331865999997,55.500000000000014,2.998,1281.0484310000002,,,,,,,,,,,,,,,,,,,,,,,,,,,,,,,,,,,,,,sub-045,47.2,45.5,48.1,COM3,2024-07-04_09h41.32.613,2024_RDpaindiscrimination_maintask,2023.2.3,59.99854803515895,2024-07-04 09h41.51.662769 -0400,
1,0,1,0,13,0,13,0,,,,,,,,,,,,,1284.0484766999998,,,,,,,,1284.0339422999996,1289.0320426999997,1289.0320494999996,1289.0485053000002,1301.0324904,1,active,45.5,1301.0326344999994,1305.1832994999995,3.0000000000002003,4.132,1301.0653365999997,,,,,,,,,,,,,,,,,,,,,,,,,,,,,,,,,,,,,,sub-045,47.2,45.5,48.1,COM3,2024-07-04_09h41.32.613,2024_RDpaindiscrimination_maintask,2023.2.3,59.99854803515895,2024-07-04 09h41.51.662769 -0400,
1,0,1,0,14,0,14,0,,,,,,,,,,,,,1305.1986459999998,,,,,,,,1305.1840490999994,1310.1823268999997,1310.1823329999997,1310.1986736999997,1322.1827347999997,2,inactive,47.2,1322.1828797999997,1323.9672083999994,44.499999999999986,1.766,1322.2155570999994,,,,,,,,,,,,,,,,,,,,,,,,,,,,,,,,,,,,,,sub-045,47.2,45.5,48.1,COM3,2024-07-04_09h41.32.613,2024_RDpaindiscrimination_maintask,2023.2.3,59.99854803515895,2024-07-04 09h41.51.662769 -0400,
1,0,1,0,15,0,15,0,,,,,,,,,,,,,1323.9822806000002,,,,,,,,1323.9679501,1328.9658462999996,1328.9658530999995,1328.9823440999999,1340.9661539999997,3,inactive,47.2,1340.9662976999998,1342.8188453000002,44.99999999999994,1.834,1340.9990164,,,,,,,,,,,,,,,,,,,,,,,,,,,,,,,,,,,,,,sub-045,47.2,45.5,48.1,COM3,2024-07-04_09h41.32.613,2024_RDpaindiscrimination_maintask,2023.2.3,59.99854803515895,2024-07-04 09h41.51.662769 -0400,
1,0,1,0,,,,,0,0,0,0,0,0,0,0,,,,,1353.1158255,,,,,,1352.4163915999998,1353.0994473,,,,,,0,active,47.2,1370.0996870999998,1372.8177122999996,19.500000000000142,2.699,,1342.8194678999998,1342.8325046999998,1352.4160661999995,1353.0997424999996,1358.0994173,1358.0994245000002,1358.1158882,1370.1326927999999,1370.0996784999998,,,,,,,,,,,,,,,,,,,,,,,,,,,,,sub-045,47.2,45.5,48.1,COM3,2024-07-04_09h41.32.613,2024_RDpaindiscrimination_maintask,2023.2.3,59.99854803515895,2024-07-04 09h41.51.662769 -0400,
1,0,1,0,,,,,0,0,0,0,1,0,1,0,,,,,1372.8327603999996,,,,,,,,,,,,,1,inactive,47.2,1389.8166566999998,1392.3180499999999,16.500000000000174,2.483,,,,,1372.8184867,1377.8163041999996,1377.8163109999996,1377.8327781999997,1389.8496687999996,1389.8166492999999,,,,,,,,,,,,,,,,,,,,,,,,,,,,,sub-045,47.2,45.5,48.1,COM3,2024-07-04_09h41.32.613,2024_RDpaindiscrimination_maintask,2023.2.3,59.99854803515895,2024-07-04 09h41.51.662769 -0400,
1,0,1,0,,,,,0,0,0,0,,,,,0,0,0,0,1393.2496647999997,,,,,,,,,,,,,2,inactive,,,,,,,,,,,,,,,,1392.3186096,1393.2332795000002,1393.2336168000002,1398.2332246999995,1398.2332361999997,1398.2497154000002,1406.2331697999998,1406.2331697999998,1409.1998531,1409.2331863999998,1409.2331863999998,1409.2167091000001,4.43,4.37,443,437,8,1.2,0.75,pic-absent,0,m,0.7016860000003362,None,,,,,sub-045,47.2,45.5,48.1,COM3,2024-07-04_09h41.32.613,2024_RDpaindiscrimination_maintask,2023.2.3,59.99854803515895,2024-07-04 09h41.51.662769 -0400,
1,0,1,0,,,,,0,0,0,0,,,,,1,0,1,0,1409.2331863999998,,,,,,,,,,,,,3,active,,,,,,,,,,,,,,,,,,1409.2172409999994,1414.2167885,1414.2167959999997,1414.2332435999997,1422.2166970999997,1422.2166970999997,1425.1833945999997,1425.2167118999996,1425.2167118999996,1425.2002353999997,4.48,4.32,448,432,8,1.2,0.75,pic-present,1,n,0.9937384000004386,None,,,,,sub-045,47.2,45.5,48.1,COM3,2024-07-04_09h41.32.613,2024_RDpaindiscrimination_maintask,2023.2.3,59.99854803515895,2024-07-04 09h41.51.662769 -0400,
1,0,1,0,,,,,0,0,0,0,,,,,2,0,2,0,1425.2167118999996,,,,,,,,,,,,,0,inactive,,,,,,,,,,,,,,,,,,1425.2008219999998,1430.2002585999999,1430.2002665999998,1430.2167590999998,1438.2002815999995,1438.2002815999995,1441.1669063,1441.2002550999996,1441.2002550999996,1441.1837045000002,4.66,4.14,466,413,8,1.2,0.75,pic-present,1,n,0.7222342000004573,None,,,,,sub-045,47.2,45.5,48.1,COM3,2024-07-04_09h41.32.613,2024_RDpaindiscrimination_maintask,2023.2.3,59.99854803515895,2024-07-04 09h41.51.662769 -0400,
1,0,1,0,,,,,0,0,0,0,,,,,3,0,3,0,1441.2002550999996,,,,,,,,,,,,,1,inactive,,,,,,,,,,,,,,,,,,1441.1841542000002,1446.1837774999995,1446.1837845,1446.2002477999995,1454.1838268000001,1454.1838268000001,1457.1503785999994,1457.1837679999999,1457.1837679999999,1457.1672296999996,3.28,5.52,328,552,8,1.2,0.75,pic-absent,0,m,0.5955173000002105,None,,,,,sub-045,47.2,45.5,48.1,COM3,2024-07-04_09h41.32.613,2024_RDpaindiscrimination_maintask,2023.2.3,59.99854803515895,2024-07-04 09h41.51.662769 -0400,
1,0,1,0,,,,,1,0,1,0,0,0,0,0,,,,,1458.3337904,,,,,,1457.1677203999998,1458.3173419999994,,,,,,2,inactive,47.2,1475.3177350999995,1476.6685425999995,34.999999999999986,1.332,,,,,1458.3176366999996,1463.3172884999994,1463.3172951999995,1463.3338208999994,1475.3505923000002,1475.3177263999996,,,,,,,,,,,,,,,,,,,,,,,,,,,,,sub-045,47.2,45.5,48.1,COM3,2024-07-04_09h41.32.613,2024_RDpaindiscrimination_maintask,2023.2.3,59.99854803515895,2024-07-04 09h41.51.662769 -0400,
1,0,1,0,,,,,1,0,1,0,1,0,1,0,,,,,1476.6839439999994,,,,,,,,,,,,,3,active,47.2,1493.6679876999997,1495.2023580999994,39.500000000000036,1.515,,,,,1476.6693035999997,1481.6675636,1481.6675698,1481.6840009999996,1493.700847,1493.6679801,,,,,,,,,,,,,,,,,,,,,,,,,,,,,sub-045,47.2,45.5,48.1,COM3,2024-07-04_09h41.32.613,2024_RDpaindiscrimination_maintask,2023.2.3,59.99854803515895,2024-07-04 09h41.51.662769 -0400,
1,0,1,0,,,,,1,0,1,0,,,,,0,0,0,0,1495.8841766999994,,,,,,,,,,,,,0,active,,,,,,,,,,,,,,,,1495.2028863999994,1495.8677910999995,1495.8680986,1500.8677351999995,1500.8677425999995,1500.884228,1508.8676637999997,1508.8676637999997,1511.8343447999996,1511.8676924000001,1511.8676924000001,1511.8512073000002,3.96,4.84,396,484,8,1.2,0.75,pic-present,1,n,0.4788844999993671,None,,,,,sub-045,47.2,45.5,48.1,COM3,2024-07-04_09h41.32.613,2024_RDpaindiscrimination_maintask,2023.2.3,59.99854803515895,2024-07-04 09h41.51.662769 -0400,
1,0,1,0,,,,,1,0,1,0,,,,,1,0,1,0,1511.8676924000001,,,,,,,,,,,,,1,inactive,,,,,,,,,,,,,,,,,,1511.8517399000002,1516.8512396999995,1516.8512461999999,1516.8677404,1524.8511816999999,1524.8511816999999,1527.8178830999996,1527.8512126999995,1527.8512126999995,1527.8347281999995,4.05,4.75,405,475,8,1.2,0.75,pic-absent,0,m,1.3318209999997634,None,,,,,sub-045,47.2,45.5,48.1,COM3,2024-07-04_09h41.32.613,2024_RDpaindiscrimination_maintask,2023.2.3,59.99854803515895,2024-07-04 09h41.51.662769 -0400,
1,0,1,0,,,,,1,0,1,0,,,,,2,0,2,0,1527.8512126999995,,,,,,,,,,,,,2,active,,,,,,,,,,,,,,,,,,1527.8351764,1532.8347401,1532.8347466999994,1532.8512800999997,1540.8347076999999,1540.8347076999999,1543.8014106,1543.8347493,1543.8347493,1543.8182501000001,3.49,5.31,349,531,8,1.2,0.75,pic-present,0,m,0.49609439999949245,None,,,,,sub-045,47.2,45.5,48.1,COM3,2024-07-04_09h41.32.613,2024_RDpaindiscrimination_maintask,2023.2.3,59.99854803515895,2024-07-04 09h41.51.662769 -0400,
1,0,1,0,,,,,1,0,1,0,,,,,3,0,3,0,1543.8347493,,,,,,,,,,,,,3,inactive,,,,,,,,,,,,,,,,,,1543.8187675,1548.8182912000002,1548.8182984999994,1548.8348146999997,1556.8182738999994,1556.8182738999994,1559.7849232999997,1559.8182620999996,1559.8182620999996,1559.8017746999994,3.95,4.85,395,484,8,1.2,0.75,pic-present,1,n,0.5964426000000458,None,,,,,sub-045,47.2,45.5,48.1,COM3,2024-07-04_09h41.32.613,2024_RDpaindiscrimination_maintask,2023.2.3,59.99854803515895,2024-07-04 09h41.51.662769 -0400,
1,0,1,0,,,,,2,0,2,0,0,0,0,0,,,,,1560.3849611999995,,,,,,1559.8022513999995,1560.3686263999998,,,,,,0,inactive,47.2,1577.3690422,1578.9866776,44.50000000000002,1.599,,,,,1560.3689292999998,1565.3685292999999,1565.3685360999998,1565.3850274999995,1577.4018373999997,1577.3690342999998,,,,,,,,,,,,,,,,,,,,,,,,,,,,,sub-045,47.2,45.5,48.1,COM3,2024-07-04_09h41.32.613,2024_RDpaindiscrimination_maintask,2023.2.3,59.99854803515895,2024-07-04 09h41.51.662769 -0400,
1,0,1,0,,,,,2,0,2,0,1,0,1,0,,,,,1579.0019350000002,,,,,,,,,,,,,1,active,47.2,1595.9857360999995,1598.2372368999995,17.000000000000103,2.233,,,,,1578.9874393999999,1583.9854715000001,1583.9854782000002,1584.0018871000002,1596.0187277999994,1595.9857279999997,,,,,,,,,,,,,,,,,,,,,,,,,,,,,sub-045,47.2,45.5,48.1,COM3,2024-07-04_09h41.32.613,2024_RDpaindiscrimination_maintask,2023.2.3,59.99854803515895,2024-07-04 09h41.51.662769 -0400,
1,0,1,0,,,,,2,0,2,0,,,,,0,0,0,0,1598.7187675999994,,,,,,,,,,,,,2,active,,,,,,,,,,,,,,,,1598.2377758000002,1598.7023431999996,1598.7026552999996,1603.7023105999997,1603.7023174999995,1603.7188526999998,1611.7022595999997,1611.7022595999997,1614.6689526999999,1614.7022777000002,1614.7022777000002,1614.6857781999997,3.74,5.06,374,505,8,1.2,0.75,pic-absent,0,m,0.6763158999992811,None,,,,,sub-045,47.2,45.5,48.1,COM3,2024-07-04_09h41.32.613,2024_RDpaindiscrimination_maintask,2023.2.3,59.99854803515895,2024-07-04 09h41.51.662769 -0400,
1,0,1,0,,,,,2,0,2,0,,,,,1,0,1,0,1614.7022777000002,,,,,,,,,,,,,3,inactive,,,,,,,,,,,,,,,,,,1614.6863154000002,1619.6858270000002,1619.6858339,1619.7023270999998,1627.6857287000003,1627.6857287000003,1630.6524307,1630.6857633999998,1630.6857633999998,1630.6692735999995,3.59,5.21,359,521,8,1.2,0.75,pic-present,1,n,0.44952660000035394,None,,,,,sub-045,47.2,45.5,48.1,COM3,2024-07-04_09h41.32.613,2024_RDpaindiscrimination_maintask,2023.2.3,59.99854803515895,2024-07-04 09h41.51.662769 -0400,
1,0,1,0,,,,,2,0,2,0,,,,,2,0,2,0,1630.6857633999998,,,,,,,,,,,,,0,active,,,,,,,,,,,,,,,,,,1630.6697837000002,1635.6693096999998,1635.6693164999997,1635.6858162999997,1643.6692476999997,1643.6692476999997,1646.6359526999995,1646.6692869999997,1646.6692869999997,1646.6527878999996,3.28,5.52,328,552,8,1.2,0.75,pic-absent,0,m,0.5053619000000253,None,,,,,sub-045,47.2,45.5,48.1,COM3,2024-07-04_09h41.32.613,2024_RDpaindiscrimination_maintask,2023.2.3,59.99854803515895,2024-07-04 09h41.51.662769 -0400,
1,0,1,0,,,,,2,0,2,0,,,,,3,0,3,0,1646.6692869999997,,,,,,,,,,,,,1,active,,,,,,,,,,,,,,,,,,1646.6532515,1651.6529622999997,1651.6529688,1651.6693375999994,1659.6527371000002,1659.6527371000002,1662.6194937,1662.6528097999999,1662.6528097999999,1662.6363308,3.65,5.15,365,515,8,1.2,0.75,pic-absent,1,n,0.514180000000124,None,,,,,sub-045,47.2,45.5,48.1,COM3,2024-07-04_09h41.32.613,2024_RDpaindiscrimination_maintask,2023.2.3,59.99854803515895,2024-07-04 09h41.51.662769 -0400,
1,0,1,0,,,,,3,0,3,0,0,0,0,0,,,,,1663.0694802999997,,,,,,1662.6368781,1663.0530698000002,,,,,,2,active,47.2,1680.0533876,1683.0212690999997,27.500000000000185,2.949,,,,,1663.0533746,1668.0530773,1668.0530844999994,1668.0695206,1680.0863497999999,1680.0533785999996,,,,,,,,,,,,,,,,,,,,,,,,,,,,,sub-045,47.2,45.5,48.1,COM3,2024-07-04_09h41.32.613,2024_RDpaindiscrimination_maintask,2023.2.3,59.99854803515895,2024-07-04 09h41.51.662769 -0400,
1,0,1,0,,,,,3,0,3,0,1,0,1,0,,,,,1683.0363760999999,,,,,,,,,,,,,3,inactive,47.2,1700.0204150999998,1703.138124,42.500000000000064,3.098,,,,,1683.0220547,1688.0199686999995,1688.0199747999995,1688.0364659999996,1700.0532726000001,1700.0204071999997,,,,,,,,,,,,,,,,,,,,,,,,,,,,,sub-045,47.2,45.5,48.1,COM3,2024-07-04_09h41.32.613,2024_RDpaindiscrimination_maintask,2023.2.3,59.99854803515895,2024-07-04 09h41.51.662769 -0400,
1,0,1,0,,,,,3,0,3,0,,,,,0,0,0,0,1703.7366538999995,,,,,,,,,,,,,0,inactive,,,,,,,,,,,,,,,,1703.1386814999996,1703.7202288999997,1703.7205414,1708.7203565,1708.7203633999998,1708.7367225999997,1716.7201109999996,1716.7201109999996,1719.6868433999998,1719.7201513999998,1719.7201513999998,1719.7036577,3.39,5.41,339,541,8,1.2,0.75,pic-present,1,n,0.7072303000004467,None,,,,,sub-045,47.2,45.5,48.1,COM3,2024-07-04_09h41.32.613,2024_RDpaindiscrimination_maintask,2023.2.3,59.99854803515895,2024-07-04 09h41.51.662769 -0400,
1,0,1,0,,,,,3,0,3,0,,,,,1,0,1,0,1719.7201513999998,,,,,,,,,,,,,1,active,,,,,,,,,,,,,,,,,,1719.7042202000002,1724.7037349000002,1724.7037418999998,1724.7202539999998,1732.7036633999996,1732.7036633999996,1735.6703718999997,1735.7037039999996,1735.7037039999996,1735.6872899,3.48,5.32,348,532,8,1.2,0.75,pic-absent,0,m,0.4790818000001309,None,,,,,sub-045,47.2,45.5,48.1,COM3,2024-07-04_09h41.32.613,2024_RDpaindiscrimination_maintask,2023.2.3,59.99854803515895,2024-07-04 09h41.51.662769 -0400,
1,0,1,0,,,,,3,0,3,0,,,,,2,0,2,0,1735.7037039999996,,,,,,,,,,,,,2,inactive,,,,,,,,,,,,,,,,,,1735.6877890999995,1740.6872589999994,1740.6872661999996,1740.7037650000002,1748.6871943999995,1748.6871943999995,1751.6538919999994,1751.6872769000001,1751.6872769000001,1751.6707453,4.21,4.59,421,459,8,1.2,0.75,pic-absent,0,m,0.4875986000006378,None,,,,,sub-045,47.2,45.5,48.1,COM3,2024-07-04_09h41.32.613,2024_RDpaindiscrimination_maintask,2023.2.3,59.99854803515895,2024-07-04 09h41.51.662769 -0400,
1,0,1,0,,,,,3,0,3,0,,,,,3,0,3,0,1751.6872769000001,,,,,,,,,,,,,3,active,,,,,,,,,,,,,,,,,,1751.6712502,1756.6709456999997,1756.6709524999997,1756.6873838000001,1764.6708196999998,1764.6708196999998,1767.6375067,1767.6708315999995,1767.6708315999995,1767.6543315,3.35,5.45,335,545,8,1.2,0.75,pic-present,1,n,0.4918076000003566,None,,,,,sub-045,47.2,45.5,48.1,COM3,2024-07-04_09h41.32.613,2024_RDpaindiscrimination_maintask,2023.2.3,59.99854803515895,2024-07-04 09h41.51.662769 -0400,
,,,,,,,,,,,,,,,,,,,,,,,,,,,,,,,,,,,,,,,,,,,,,,,,,,,,,,,,,,,,,,,,,,,,,,,,,,1767.6547962999994,1769.7210317,1769.7210509999995,1779.7209953000001,,,,,,,,,,,
