trials.thisRepN,trials.thisTrialN,trials.thisN,trials.thisIndex,loop_test.thisRepN,loop_test.thisTrialN,loop_test.thisN,loop_test.thisIndex,loop_eval_discri.thisRepN,loop_eval_discri.thisTrialN,loop_eval_discri.thisN,loop_eval_discri.thisIndex,loop_eval.thisRepN,loop_eval.thisTrialN,loop_eval.thisN,loop_eval.thisIndex,loop_discri.thisRepN,loop_discri.thisTrialN,loop_discri.thisN,loop_discri.thisIndex,thisRow.t,notes,Set_up.started,Set_up.stopped,electrode_check.started,electrode_check.stopped,instructions_eval.started,instructions_eval.stopped,pause_5_test.started,pause_5_test.stopped,Phase_Test.started,thermode_locali.started,thermode_locali.stopped,Phase_Test.stopped,loca_thermode,condition,temp_trial_sent,eval_douleur.started,eval_douleur.stopped,ratingScale.response,ratingScale.rt,Fin_test.started,text.started,Fin_test.stopped,pause_5_EVA.started,pause_5_EVA.stopped,tâche_EVA.started,thermode_locali_EVA.started,thermode_locali_EVA.stopped,tâche_EVA.stopped,instructions_discrim.started,instructions_discrim.stopped,pause_5_pic.started,pause_5_pic.stopped,tâche_PIC.started,thermode_locali_pic.started,percu_or.started,responser.started,thermode_locali_pic.stopped,percu_or.stopped,responser.stopped,tâche_PIC.stopped,dur_plateau1,dur_plateau2,dur_plateau1_sent,dur_plateau2_sent,start_plateau_2_resp,dur_pic,dur_rise,pic_presence,pic_response,discrimin_resp.keys,discrimin_resp.rt,discrimin_resp.duration,break_entre_bloc.started,break_entre_bloc.stopped,merci.started,merci.stopped,participant,temp_flat,temp_active,temp_pic_set,com_thermode,date,expName,psychopyVersion,frameRate,expStart,
0,0,0,0,0,0,0,0,,,,,,,,,,,,,172.18569620000198,,0.017350099980831146,146.60245130001567,146.6028149999911,148.35234900005162,148.3523564999923,172.169301200076,172.16958149999846,177.16921359999105,177.16921990003902,177.1856434000656,189.2023906999966,189.16967540001497,0,active,44.5,189.1698963000672,198.07201290002558,13.000000000000075,8.877,,,,,,,,,,,,,,,,,,,,,,,,,,,,,,,,,,,,,,sub-027,45.9,44.5,46.7,COM3,2024-02-20_13h45.14.957,2024_RDpaindiscrimination_maintask,2023.2.3,60.00949351827461,2024-02-20 13h45.33.573226 -0500,
0,0,0,0,1,0,1,0,,,,,,,,,,,,,198.08593990001827,,,,,,,,198.07285750005394,203.06942449999042,203.0694305000361,203.08588889997918,215.10271860007197,215.06985990004614,1,inactive,45.9,215.07000559999142,218.6532646000851,30.500000000000107,3.564,,,,,,,,,,,,,,,,,,,,,,,,,,,,,,,,,,,,,,sub-027,45.9,44.5,46.7,COM3,2024-02-20_13h45.14.957,2024_RDpaindiscrimination_maintask,2023.2.3,60.00949351827461,2024-02-20 13h45.33.573226 -0500,
0,0,0,0,2,0,2,0,,,,,,,,,,,,,218.66930100007448,,,,,,,,218.65350140002556,223.65295400004834,223.6529602999799,223.66942869999912,235.68628620007075,235.65334860002622,2,active,44.5,235.65349890000653,241.3557927000802,18.5,5.684,,,,,,,,,,,,,,,,,,,,,,,,,,,,,,,,,,,,,,sub-027,45.9,44.5,46.7,COM3,2024-02-20_13h45.14.957,2024_RDpaindiscrimination_maintask,2023.2.3,60.00949351827461,2024-02-20 13h45.33.573226 -0500,
0,0,0,0,3,0,3,0,,,,,,,,,,,,,241.36962170002516,,,,,,,,241.35654329997487,246.35318870004267,246.35319489997346,246.36956760007888,258.3864453000715,258.35359670000616,3,inactive,45.9,258.3537481999956,265.4047434000531,34.00000000000003,7.033,,,,,,,,,,,,,,,,,,,,,,,,,,,,,,,,,,,,,,sub-027,45.9,44.5,46.7,COM3,2024-02-20_13h45.14.957,2024_RDpaindiscrimination_maintask,2023.2.3,60.00949351827461,2024-02-20 13h45.33.573226 -0500,
0,0,0,0,4,0,4,0,,,,,,,,,,,,,265.4198158000363,,,,,,,,265.4055464999983,270.4034112000372,270.40341760008596,270.41986690007616,282.436677300022,282.4038043000037,0,inactive,45.9,282.40394460002426,284.98967799998354,29.500000000000036,2.567,,,,,,,,,,,,,,,,,,,,,,,,,,,,,,,,,,,,,,sub-027,45.9,44.5,46.7,COM3,2024-02-20_13h45.14.957,2024_RDpaindiscrimination_maintask,2023.2.3,60.00949351827461,2024-02-20 13h45.33.573226 -0500,
0,0,0,0,5,0,5,0,,,,,,,,,,,,,285.00338400003966,,,,,,,,284.99047930003144,289.9869620000245,289.9869682000717,290.00340090005193,302.02027680003084,301.98733909998555,1,active,44.5,301.9874886000762,306.18933289998677,9.000000000000167,4.183,,,,,,,,,,,,,,,,,,,,,,,,,,,,,,,,,,,,,,sub-027,45.9,44.5,46.7,COM3,2024-02-20_13h45.14.957,2024_RDpaindiscrimination_maintask,2023.2.3,60.00949351827461,2024-02-20 13h45.33.573226 -0500,
0,0,0,0,6,0,6,0,,,,,,,,,,,,,306.203657999984,,,,,,,,306.19008510001004,311.1871833000332,311.1871904999716,311.20359320007265,323.2204124000855,323.1875355000375,2,inactive,45.9,323.1876765000634,326.8402585000731,30.500000000000142,3.634,,,,,,,,,,,,,,,,,,,,,,,,,,,,,,,,,,,,,,sub-027,45.9,44.5,46.7,COM3,2024-02-20_13h45.14.957,2024_RDpaindiscrimination_maintask,2023.2.3,60.00949351827461,2024-02-20 13h45.33.573226 -0500,
0,0,0,0,7,0,7,0,,,,,,,,,,,,,326.8537916999776,,,,,,,,326.8410341000417,331.83733350003604,331.83733940008096,331.8538007000461,343.87061290000565,343.83782900008373,3,inactive,45.9,343.8379737000214,345.3887488000328,32.999999999999986,1.531,,,,,,,,,,,,,,,,,,,,,,,,,,,,,,,,,,,,,,sub-027,45.9,44.5,46.7,COM3,2024-02-20_13h45.14.957,2024_RDpaindiscrimination_maintask,2023.2.3,60.00949351827461,2024-02-20 13h45.33.573226 -0500,
0,0,0,0,8,0,8,0,,,,,,,,,,,,,345.4039965000702,,,,,,,,345.38959899998736,350.38742829998955,350.3874342000345,350.4039331000531,362.4207101999782,362.38783090002835,0,active,44.5,362.3879763999721,365.13967040006537,13.50000000000003,2.732,,,,,,,,,,,,,,,,,,,,,,,,,,,,,,,,,,,,,,sub-027,45.9,44.5,46.7,COM3,2024-02-20_13h45.14.957,2024_RDpaindiscrimination_maintask,2023.2.3,60.00949351827461,2024-02-20 13h45.33.573226 -0500,
0,0,0,0,9,0,9,0,,,,,,,,,,,,,365.1541400999995,,,,,,,,365.1404702999862,370.1376385000767,370.13764460000675,370.1541196000762,382.1710274000652,382.1382239999948,1,active,44.5,382.1383655000245,384.8069561000448,15.499999999999996,2.649,,,,,,,,,,,,,,,,,,,,,,,,,,,,,,,,,,,,,,sub-027,45.9,44.5,46.7,COM3,2024-02-20_13h45.14.957,2024_RDpaindiscrimination_maintask,2023.2.3,60.00949351827461,2024-02-20 13h45.33.573226 -0500,
0,0,0,0,10,0,10,0,,,,,,,,,,,,,384.82105130003765,,,,,,,,384.80774920003023,389.8046278000111,389.80463410005905,389.8210035000229,401.83781130006537,401.8049388000509,2,inactive,45.9,401.80508070008364,404.6912129999837,40.000000000000036,2.867,,,,,,,,,,,,,,,,,,,,,,,,,,,,,,,,,,,,,,sub-027,45.9,44.5,46.7,COM3,2024-02-20_13h45.14.957,2024_RDpaindiscrimination_maintask,2023.2.3,60.00949351827461,2024-02-20 13h45.33.573226 -0500,
0,0,0,0,11,0,11,0,,,,,,,,,,,,,404.7045796000166,,,,,,,,404.69199369999114,409.6879921000218,409.68799820006825,409.70458070002496,421.72137110005133,421.68892620003317,3,active,44.5,421.68907710001804,424.27285339997616,14.499999999999995,2.564,,,,,,,,,,,,,,,,,,,,,,,,,,,,,,,,,,,,,,sub-027,45.9,44.5,46.7,COM3,2024-02-20_13h45.14.957,2024_RDpaindiscrimination_maintask,2023.2.3,60.00949351827461,2024-02-20 13h45.33.573226 -0500,
0,0,0,0,12,0,12,0,,,,,,,,,,,,,424.28802099998575,,,,,,,,424.27356110000983,429.2716075000353,429.271613500081,429.28811960003804,441.30490129999816,441.2720958000282,0,inactive,45.9,441.27223790006246,445.8073005999904,34.00000000000003,4.516,,,,,,,,,,,,,,,,,,,,,,,,,,,,,,,,,,,,,,sub-027,45.9,44.5,46.7,COM3,2024-02-20_13h45.14.957,2024_RDpaindiscrimination_maintask,2023.2.3,60.00949351827461,2024-02-20 13h45.33.573226 -0500,
0,0,0,0,13,0,13,0,,,,,,,,,,,,,445.8217265000567,,,,,,,,445.8080306000775,450.8052109000273,450.8052172000753,450.82166660006624,462.8383964999812,462.8055970000569,1,inactive,45.9,462.80573909997474,465.40772130002733,34.00000000000009,2.582,,,,,,,,,,,,,,,,,,,,,,,,,,,,,,,,,,,,,,sub-027,45.9,44.5,46.7,COM3,2024-02-20_13h45.14.957,2024_RDpaindiscrimination_maintask,2023.2.3,60.00949351827461,2024-02-20 13h45.33.573226 -0500,
0,0,0,0,14,0,14,0,,,,,,,,,,,,,465.4218486000318,,,,,,,,465.4085597000085,470.4053683000384,470.4053743000841,470.42183370003477,482.4386463999981,482.4057556000771,2,active,44.5,482.405898099998,485.6411538000684,15.000000000000032,3.217,,,,,,,,,,,,,,,,,,,,,,,,,,,,,,,,,,,,,,sub-027,45.9,44.5,46.7,COM3,2024-02-20_13h45.14.957,2024_RDpaindiscrimination_maintask,2023.2.3,60.00949351827461,2024-02-20 13h45.33.573226 -0500,
0,0,0,0,15,0,15,0,,,,,,,,,,,,,485.65539379999973,,,,,,,,485.6418781999964,490.6389321000315,490.638938200078,490.65534180006944,502.6722028000513,502.6393482000567,3,active,44.5,502.6394924999913,507.23979700007476,3.0,4.58,,,,,,,,,,,,,,,,,,,,,,,,,,,,,,,,,,,,,,sub-027,45.9,44.5,46.7,COM3,2024-02-20_13h45.14.957,2024_RDpaindiscrimination_maintask,2023.2.3,60.00949351827461,2024-02-20 13h45.33.573226 -0500,
0,0,0,0,,,,,0,0,0,0,0,0,0,0,,,,,552.406060700072,,,,,,550.3233480000636,552.3896476000082,,,,,,,0,active,45.9,569.3900811000494,573.1251362999901,14.500000000000172,3.715,507.2399928000523,507.2555539000314,550.3229895000113,552.3899560000282,557.389597899979,557.3896054000361,557.4062635999871,569.4228640000802,569.3900721999817,,,,,,,,,,,,,,,,,,,,,,,,,,,,,sub-027,45.9,44.5,46.7,COM3,2024-02-20_13h45.14.957,2024_RDpaindiscrimination_maintask,2023.2.3,60.00949351827461,2024-02-20 13h45.33.573226 -0500,
0,0,0,0,,,,,0,0,0,0,1,0,1,0,,,,,573.1395440000342,,,,,,,,,,,,,,1,inactive,45.9,590.1235876000719,595.4416477000341,30.500000000000178,5.3,,,,573.1259529000381,578.1230780000333,578.1230846000835,578.139644299983,590.1564638999989,590.123579600011,,,,,,,,,,,,,,,,,,,,,,,,,,,,,sub-027,45.9,44.5,46.7,COM3,2024-02-20_13h45.14.957,2024_RDpaindiscrimination_maintask,2023.2.3,60.00949351827461,2024-02-20 13h45.33.573226 -0500,
0,0,0,0,,,,,0,0,0,0,,,,,0,0,0,0,597.45649770007,,,,,,,,,,,,,,2,active,,,,,,,,,,,,,,,595.4418224000838,597.4400798000861,597.4403767000185,602.439991399995,602.4399985000491,602.4564728999976,610.4399071000516,610.4399071000516,613.4066573000746,613.4399514000397,613.4399514000397,613.4234530000249,3.43,5.37,343,537,8,1.2,0.75,pic-absent,0,m,1.9233151000225917,None,,,,,sub-027,45.9,44.5,46.7,COM3,2024-02-20_13h45.14.957,2024_RDpaindiscrimination_maintask,2023.2.3,60.00949351827461,2024-02-20 13h45.33.573226 -0500,
0,0,0,0,,,,,0,0,0,0,,,,,1,0,1,0,613.4399514000397,,,,,,,,,,,,,,3,inactive,,,,,,,,,,,,,,,,,613.4241039999761,618.4234948999947,618.423501500045,618.4400188999716,626.4234174999874,626.4234174999874,629.3901124000549,629.423500200035,629.423500200035,629.4071763000684,4.01,4.79,401,479,8,1.2,0.75,pic-present,1,n,0.7478839999530464,None,,,,,sub-027,45.9,44.5,46.7,COM3,2024-02-20_13h45.14.957,2024_RDpaindiscrimination_maintask,2023.2.3,60.00949351827461,2024-02-20 13h45.33.573226 -0500,
0,0,0,0,,,,,0,0,0,0,,,,,2,0,2,0,629.423500200035,,,,,,,,,,,,,,0,active,,,,,,,,,,,,,,,,,629.4076356000733,634.4069817999844,634.4069882000331,634.4235005000373,642.4069551000139,642.4069551000139,645.3736130000325,645.4069449000526,645.4069449000526,645.3904957000632,4.71,4.09,471,409,8,1.2,0.75,pic-absent,1,n,2.112293199985288,None,,,,,sub-027,45.9,44.5,46.7,COM3,2024-02-20_13h45.14.957,2024_RDpaindiscrimination_maintask,2023.2.3,60.00949351827461,2024-02-20 13h45.33.573226 -0500,
0,0,0,0,,,,,0,0,0,0,,,,,3,0,3,0,645.4069449000526,,,,,,,,,,,,,,1,inactive,,,,,,,,,,,,,,,,,645.3909469000064,650.3904748000205,650.3904811000684,650.4070072000613,658.3904236999806,658.3904236999806,661.3571069000755,661.3905196000123,661.3905196000123,661.3739610000048,4.34,4.46,434,446,8,1.2,0.75,pic-present,1,n,0.5123847000068054,None,,,,,sub-027,45.9,44.5,46.7,COM3,2024-02-20_13h45.14.957,2024_RDpaindiscrimination_maintask,2023.2.3,60.00949351827461,2024-02-20 13h45.33.573226 -0500,
0,0,0,0,,,,,1,0,1,0,0,0,0,0,,,,,663.9738858999917,,,,,,661.3744503000053,663.9576892000623,,,,,,,2,inactive,45.9,680.9578337999992,684.2261887000641,17.00000000000014,3.249,,,,663.9580198000185,668.9573867000872,668.9573998000706,668.9738221999723,680.9906120999949,680.9578252000501,,,,,,,,,,,,,,,,,,,,,,,,,,,,,sub-027,45.9,44.5,46.7,COM3,2024-02-20_13h45.14.957,2024_RDpaindiscrimination_maintask,2023.2.3,60.00949351827461,2024-02-20 13h45.33.573226 -0500,
0,0,0,0,,,,,1,0,1,0,1,0,1,0,,,,,684.240756800049,,,,,,,,,,,,,,3,active,45.9,701.2246725000441,706.0266632999992,16.500000000000078,4.783,,,,684.2272250000387,689.2242715000175,689.2242775000632,689.240754700033,701.257571300026,701.2246642999817,,,,,,,,,,,,,,,,,,,,,,,,,,,,,sub-027,45.9,44.5,46.7,COM3,2024-02-20_13h45.14.957,2024_RDpaindiscrimination_maintask,2023.2.3,60.00949351827461,2024-02-20 13h45.33.573226 -0500,
0,0,0,0,,,,,1,0,1,0,,,,,0,0,0,0,709.0076722999802,,,,,,,,,,,,,,0,active,,,,,,,,,,,,,,,706.0271488999715,708.9912382999901,708.991553000058,713.9911262000678,713.9911328000017,714.0076825000579,721.9910510000773,721.9910510000773,724.9577359000687,724.9910634000553,724.9910634000553,724.9746719000395,3.33,5.47,333,547,8,1.2,0.75,pic-present,1,n,0.7169051000382751,None,,,,,sub-027,45.9,44.5,46.7,COM3,2024-02-20_13h45.14.957,2024_RDpaindiscrimination_maintask,2023.2.3,60.00949351827461,2024-02-20 13h45.33.573226 -0500,
0,0,0,0,,,,,1,0,1,0,,,,,1,0,1,0,724.9910634000553,,,,,,,,,,,,,,1,inactive,,,,,,,,,,,,,,,,,724.9752300999826,729.9747153000208,729.9747226000763,729.9911690000445,737.9746153000742,737.9746153000742,740.9413480000803,741.024623000063,741.024623000063,740.9581556000048,3.91,4.89,391,488,8,1.2,0.75,pic-absent,0,m,0.8126305000623688,None,,,,,sub-027,45.9,44.5,46.7,COM3,2024-02-20_13h45.14.957,2024_RDpaindiscrimination_maintask,2023.2.3,60.00949351827461,2024-02-20 13h45.33.573226 -0500,
0,0,0,0,,,,,1,0,1,0,,,,,2,0,2,0,741.024623000063,,,,,,,,,,,,,,2,active,,,,,,,,,,,,,,,,,740.9586238000775,745.974740399979,745.9747471000301,745.991285199998,753.9581149000442,753.9581149000442,756.941499400069,756.9581927000545,756.9581927000545,756.9416937000351,4.01,4.79,401,479,8,1.2,0.75,pic-present,1,n,0.6731884001055732,None,,,,,sub-027,45.9,44.5,46.7,COM3,2024-02-20_13h45.14.957,2024_RDpaindiscrimination_maintask,2023.2.3,60.00949351827461,2024-02-20 13h45.33.573226 -0500,
0,0,0,0,,,,,1,0,1,0,,,,,3,0,3,0,756.9581927000545,,,,,,,,,,,,,,3,inactive,,,,,,,,,,,,,,,,,756.9421753999777,761.9417153000832,761.9417220000178,761.9582293999847,769.9415981000056,769.9415981000056,772.908262400073,772.941671299981,772.941671299981,772.9251838000491,3.94,4.86,394,486,8,1.2,0.75,pic-absent,0,m,0.8655441999435425,None,,,,,sub-027,45.9,44.5,46.7,COM3,2024-02-20_13h45.14.957,2024_RDpaindiscrimination_maintask,2023.2.3,60.00949351827461,2024-02-20 13h45.33.573226 -0500,
0,0,0,0,,,,,2,0,2,0,0,0,0,0,,,,,775.2416607000632,,,,,,772.9256745000603,775.2253969999729,,,,,,,0,active,45.9,792.2255868000211,795.3613972000312,14.000000000000137,3.116,,,,775.225693800021,780.2253211999778,780.2253276000265,780.2416606000625,792.2585453999927,792.2255787000759,,,,,,,,,,,,,,,,,,,,,,,,,,,,,sub-027,45.9,44.5,46.7,COM3,2024-02-20_13h45.14.957,2024_RDpaindiscrimination_maintask,2023.2.3,60.00949351827461,2024-02-20 13h45.33.573226 -0500,
0,0,0,0,,,,,2,0,2,0,1,0,1,0,,,,,795.3752321000211,,,,,,,,,,,,,,1,inactive,45.9,812.3592071000021,816.4939798000269,21.000000000000174,4.115,,,,795.362105700071,800.3587924999883,800.3587994000409,800.3752489000326,812.3920788000105,812.3591990000568,,,,,,,,,,,,,,,,,,,,,,,,,,,,,sub-027,45.9,44.5,46.7,COM3,2024-02-20_13h45.14.957,2024_RDpaindiscrimination_maintask,2023.2.3,60.00949351827461,2024-02-20 13h45.33.573226 -0500,
0,0,0,0,,,,,2,0,2,0,,,,,0,0,0,0,818.8254473999841,,,,,,,,,,,,,,2,inactive,,,,,,,,,,,,,,,816.4944878000533,818.8091168000828,818.8094195000594,823.8090365000535,823.8090430999873,823.8255043000681,831.8089664999861,831.8089664999861,834.7755055000307,834.8088372000493,834.8088372000493,834.7925345000112,3.7,5.1,370,509,8,1.2,0.75,pic-absent,0,m,0.8428673000307754,None,,,,,sub-027,45.9,44.5,46.7,COM3,2024-02-20_13h45.14.957,2024_RDpaindiscrimination_maintask,2023.2.3,60.00949351827461,2024-02-20 13h45.33.573226 -0500,
0,0,0,0,,,,,2,0,2,0,,,,,1,0,1,0,834.8088372000493,,,,,,,,,,,,,,3,active,,,,,,,,,,,,,,,,,834.79307600006,839.7924439000199,839.7924510000739,839.8088874000823,847.7923016999848,847.7923016999848,850.7589928000234,850.7923807000043,850.7923807000043,850.7758404000197,4.27,4.53,426,453,8,1.2,0.75,pic-present,1,n,0.5142099999357015,None,,,,,sub-027,45.9,44.5,46.7,COM3,2024-02-20_13h45.14.957,2024_RDpaindiscrimination_maintask,2023.2.3,60.00949351827461,2024-02-20 13h45.33.573226 -0500,
0,0,0,0,,,,,2,0,2,0,,,,,2,0,2,0,850.7923807000043,,,,,,,,,,,,,,0,inactive,,,,,,,,,,,,,,,,,850.7763084999751,855.7759067000588,855.7759131999919,855.7924616000382,863.7762277000584,863.7762277000584,866.7425799000775,866.775875100051,866.775875100051,866.7594601999735,3.5,5.3,350,530,8,1.2,0.75,pic-present,1,n,1.1315155000193045,None,,,,,sub-027,45.9,44.5,46.7,COM3,2024-02-20_13h45.14.957,2024_RDpaindiscrimination_maintask,2023.2.3,60.00949351827461,2024-02-20 13h45.33.573226 -0500,
0,0,0,0,,,,,2,0,2,0,,,,,3,0,3,0,866.775875100051,,,,,,,,,,,,,,1,active,,,,,,,,,,,,,,,,,866.759916500072,871.7593661000719,871.7593727000058,871.775907900068,879.7593196000671,879.7593196000671,882.7260014000349,882.7593497000635,882.7593497000635,882.7428429999854,3.94,4.86,394,486,8,1.2,0.75,pic-absent,0,m,1.3186672000447288,None,,,,,sub-027,45.9,44.5,46.7,COM3,2024-02-20_13h45.14.957,2024_RDpaindiscrimination_maintask,2023.2.3,60.00949351827461,2024-02-20 13h45.33.573226 -0500,
0,0,0,0,,,,,3,0,3,0,0,0,0,0,,,,,884.8094392999774,,,,,,882.7433242000407,884.7929513000418,,,,,,,2,inactive,45.9,901.7932410000358,905.1784147999715,22.00000000000017,3.365,,,,884.7932584000519,889.792994700023,889.7930017000763,889.8094483000459,901.8262315000175,901.7932322000852,,,,,,,,,,,,,,,,,,,,,,,,,,,,,sub-027,45.9,44.5,46.7,COM3,2024-02-20_13h45.14.957,2024_RDpaindiscrimination_maintask,2023.2.3,60.00949351827461,2024-02-20 13h45.33.573226 -0500,
0,0,0,0,,,,,3,0,3,0,1,0,1,0,,,,,905.1929763000226,,,,,,,,,,,,,,3,active,45.9,922.1769623000873,926.0793461999856,14.500000000000172,3.883,,,,905.1786753999768,910.1765224999981,910.1765287000453,910.1930197000038,922.2098069000058,922.1769543000264,,,,,,,,,,,,,,,,,,,,,,,,,,,,,sub-027,45.9,44.5,46.7,COM3,2024-02-20_13h45.14.957,2024_RDpaindiscrimination_maintask,2023.2.3,60.00949351827461,2024-02-20 13h45.33.573226 -0500,
0,0,0,0,,,,,3,0,3,0,,,,,0,0,0,0,927.7766198000172,,,,,,,,,,,,,,0,inactive,,,,,,,,,,,,,,,926.0798591000494,927.76025390008,927.7605660000117,932.7601456000702,932.7601523000048,932.7766674000304,940.7600487000309,940.7600487000309,943.7267051000381,943.76004990004,943.76004990004,943.7436527999816,3.43,5.37,343,537,8,1.2,0.75,pic-present,1,n,0.4423389999428764,None,,,,,sub-027,45.9,44.5,46.7,COM3,2024-02-20_13h45.14.957,2024_RDpaindiscrimination_maintask,2023.2.3,60.00949351827461,2024-02-20 13h45.33.573226 -0500,
0,0,0,0,,,,,3,0,3,0,,,,,1,0,1,0,943.76004990004,,,,,,,,,,,,,,1,active,,,,,,,,,,,,,,,,,943.7441994000692,948.7435712000588,948.7435775999911,948.7600577999838,956.7435357000213,956.7435357000213,959.7102326999884,959.743568600039,959.743568600039,959.7269941000268,3.78,5.02,378,501,8,1.2,0.75,pic-absent,0,m,0.9679416000144556,None,,,,,sub-027,45.9,44.5,46.7,COM3,2024-02-20_13h45.14.957,2024_RDpaindiscrimination_maintask,2023.2.3,60.00949351827461,2024-02-20 13h45.33.573226 -0500,
0,0,0,0,,,,,3,0,3,0,,,,,2,0,2,0,959.743568600039,,,,,,,,,,,,,,2,inactive,,,,,,,,,,,,,,,,,959.7275254999986,964.7271111999871,964.7271178000374,964.7436267000157,972.7270440000575,972.7270440000575,975.6937423000345,975.7270748000592,975.7270748000592,975.7105889000231,3.9,4.9,390,490,8,1.2,0.75,pic-absent,0,m,1.015802700072527,None,,,,,sub-027,45.9,44.5,46.7,COM3,2024-02-20_13h45.14.957,2024_RDpaindiscrimination_maintask,2023.2.3,60.00949351827461,2024-02-20 13h45.33.573226 -0500,
0,0,0,0,,,,,3,0,3,0,,,,,3,0,3,0,975.7270748000592,,,,,,,,,,,,,,3,active,,,,,,,,,,,,,,,,,975.7110538000707,980.7106101000682,980.7106168000028,980.7270944999764,988.7105404000031,988.7105404000031,991.677236800082,991.710490000085,991.710490000085,991.694090200006,3.5,5.3,350,530,8,1.2,0.75,pic-present,1,n,0.8793596000177786,None,,,,,sub-027,45.9,44.5,46.7,COM3,2024-02-20_13h45.14.957,2024_RDpaindiscrimination_maintask,2023.2.3,60.00949351827461,2024-02-20 13h45.33.573226 -0500,
1,0,1,0,0,0,0,0,,,,,,,,,,,,,1069.094673500047,,,,1064.8116549000842,1066.6115552000701,1066.6115627000108,1069.0783121000277,1069.078627699986,1074.0782177000074,1074.0782240000553,1074.095008000033,1086.111483899993,1086.078695000033,0,active,44.5,1086.0789087000303,1088.3147243000567,4.5,2.214,,,,,,,,,,,,,,,,,,,,,,,,,,,,,,,,,,991.6947471000021,1064.8115308000706,,,sub-027,45.9,44.5,46.7,COM3,2024-02-20_13h45.14.957,2024_RDpaindiscrimination_maintask,2023.2.3,60.00949351827461,2024-02-20 13h45.33.573226 -0500,
1,0,1,0,1,0,1,0,,,,,,,,,,,,,1088.3282376000425,,,,,,,,1088.3155797000509,1093.311833600048,1093.3118394999765,1093.3283115000231,1105.3450453000842,1105.3122305000434,1,inactive,45.9,1105.312375599984,1108.7465871999739,9.000000000000002,3.414,,,,,,,,,,,,,,,,,,,,,,,,,,,,,,,,,,,,,,sub-027,45.9,44.5,46.7,COM3,2024-02-20_13h45.14.957,2024_RDpaindiscrimination_maintask,2023.2.3,60.00949351827461,2024-02-20 13h45.33.573226 -0500,
1,0,1,0,2,0,2,0,,,,,,,,,,,,,1108.761836700025,,,,,,,,1108.747332500061,1113.7453013000777,1113.74530770001,1113.7618019999936,1125.7786326999776,1125.7457311999751,2,active,44.5,1125.7458702999866,1127.697778300033,3.9999999999999996,1.933,,,,,,,,,,,,,,,,,,,,,,,,,,,,,,,,,,,,,,sub-027,45.9,44.5,46.7,COM3,2024-02-20_13h45.14.957,2024_RDpaindiscrimination_maintask,2023.2.3,60.00949351827461,2024-02-20 13h45.33.573226 -0500,
1,0,1,0,3,0,3,0,,,,,,,,,,,,,1127.7120011000661,,,,,,,,1127.698562500067,1132.6955200000666,1132.6955261999974,1132.7119760999922,1144.7287908999715,1144.6959443000378,3,inactive,45.9,1144.6960879000835,1148.1818521000678,36.00000000000012,3.466,,,,,,,,,,,,,,,,,,,,,,,,,,,,,,,,,,,,,,sub-027,45.9,44.5,46.7,COM3,2024-02-20_13h45.14.957,2024_RDpaindiscrimination_maintask,2023.2.3,60.00949351827461,2024-02-20 13h45.33.573226 -0500,
1,0,1,0,4,0,4,0,,,,,,,,,,,,,1148.195506200078,,,,,,,,1148.1826297000516,1153.1791031999746,1153.179108900018,1153.1955913000274,1165.2123466000194,1165.1794410999864,0,inactive,45.9,1165.1795825000154,1168.6977871999843,20.000000000000213,3.498,,,,,,,,,,,,,,,,,,,,,,,,,,,,,,,,,,,,,,sub-027,45.9,44.5,46.7,COM3,2024-02-20_13h45.14.957,2024_RDpaindiscrimination_maintask,2023.2.3,60.00949351827461,2024-02-20 13h45.33.573226 -0500,
1,0,1,0,5,0,5,0,,,,,,,,,,,,,1168.7123461000156,,,,,,,,1168.6985761000542,1173.695921299979,1173.6959271000233,1173.7123859000858,1185.7291835000506,1185.696334599983,1,active,44.5,1185.696473399992,1188.0812609000131,2.0,2.365,,,,,,,,,,,,,,,,,,,,,,,,,,,,,,,,,,,,,,sub-027,45.9,44.5,46.7,COM3,2024-02-20_13h45.14.957,2024_RDpaindiscrimination_maintask,2023.2.3,60.00949351827461,2024-02-20 13h45.33.573226 -0500,
1,0,1,0,6,0,6,0,,,,,,,,,,,,,1188.0958998000715,,,,,,,,1188.0820467000594,1193.079481999972,1193.0794885000214,1193.0959251000313,1205.1127415000228,1205.079850899987,2,inactive,45.9,1205.0799978000578,1209.315829899977,43.49999999999995,4.218,,,,,,,,,,,,,,,,,,,,,,,,,,,,,,,,,,,,,,sub-027,45.9,44.5,46.7,COM3,2024-02-20_13h45.14.957,2024_RDpaindiscrimination_maintask,2023.2.3,60.00949351827461,2024-02-20 13h45.33.573226 -0500,
1,0,1,0,7,0,7,0,,,,,,,,,,,,,1209.3295113000786,,,,,,,,1209.3166691000806,1214.3130929999752,1214.3130992000224,1214.3295710000675,1226.3463916999754,1226.3135866000084,3,active,44.5,1226.313737599994,1228.414414400002,6.0,2.082,,,,,,,,,,,,,,,,,,,,,,,,,,,,,,,,,,,,,,sub-027,45.9,44.5,46.7,COM3,2024-02-20_13h45.14.957,2024_RDpaindiscrimination_maintask,2023.2.3,60.00949351827461,2024-02-20 13h45.33.573226 -0500,
1,0,1,0,8,0,8,0,,,,,,,,,,,,,1228.4297946000006,,,,,,,,1228.4152176000644,1233.4133529000683,1233.4133593000006,1233.4297661000164,1245.446599500021,1245.4136968000093,0,inactive,45.9,1245.4138378000353,1250.098800100037,23.500000000000163,4.667,,,,,,,,,,,,,,,,,,,,,,,,,,,,,,,,,,,,,,sub-027,45.9,44.5,46.7,COM3,2024-02-20_13h45.14.957,2024_RDpaindiscrimination_maintask,2023.2.3,60.00949351827461,2024-02-20 13h45.33.573226 -0500,
1,0,1,0,9,0,9,0,,,,,,,,,,,,,1250.1133390000323,,,,,,,,1250.099594600033,1255.0968656999758,1255.0968716000207,1255.1133448000764,1267.1301503999857,1267.097271000035,1,inactive,45.9,1267.097410300048,1270.3830578000052,23.999999999999986,3.265,,,,,,,,,,,,,,,,,,,,,,,,,,,,,,,,,,,,,,sub-027,45.9,44.5,46.7,COM3,2024-02-20_13h45.14.957,2024_RDpaindiscrimination_maintask,2023.2.3,60.00949351827461,2024-02-20 13h45.33.573226 -0500,
1,0,1,0,10,0,10,0,,,,,,,,,,,,,1270.3968711000634,,,,,,,,1270.3838057999965,1275.3804466000292,1275.3804527000757,1275.396837300039,1287.4136481999885,1287.3809177000076,2,active,44.5,1287.3810699000023,1289.665778100025,6.0,2.265,,,,,,,,,,,,,,,,,,,,,,,,,,,,,,,,,,,,,,sub-027,45.9,44.5,46.7,COM3,2024-02-20_13h45.14.957,2024_RDpaindiscrimination_maintask,2023.2.3,60.00949351827461,2024-02-20 13h45.33.573226 -0500,
1,0,1,0,11,0,11,0,,,,,,,,,,,,,1289.680427800049,,,,,,,,1289.666595500079,1294.6639799000695,1294.6639856999973,1294.6803990000626,1306.6972160000587,1306.664368800004,3,inactive,45.9,1306.6645150000695,1310.5495927999727,40.49999999999993,3.866,,,,,,,,,,,,,,,,,,,,,,,,,,,,,,,,,,,,,,sub-027,45.9,44.5,46.7,COM3,2024-02-20_13h45.14.957,2024_RDpaindiscrimination_maintask,2023.2.3,60.00949351827461,2024-02-20 13h45.33.573226 -0500,
1,0,1,0,12,0,12,0,,,,,,,,,,,,,1310.5639256000286,,,,,,,,1310.5504538000096,1315.5475887000794,1315.547594500007,1315.5638806000352,1327.5806458999868,1327.5478823999874,0,active,44.5,1327.548026100034,1332.216472,10.000000000000169,4.65,,,,,,,,,,,,,,,,,,,,,,,,,,,,,,,,,,,,,,sub-027,45.9,44.5,46.7,COM3,2024-02-20_13h45.14.957,2024_RDpaindiscrimination_maintask,2023.2.3,60.00949351827461,2024-02-20 13h45.33.573226 -0500,
1,0,1,0,13,0,13,0,,,,,,,,,,,,,1332.2308343000477,,,,,,,,1332.2172130000545,1337.214389199973,1337.2143945000134,1337.2307429000502,1349.247650000034,1349.2147850000765,1,active,44.5,1349.2149221000727,1350.8007502000546,3.9999999999999996,1.566,,,,,,,,,,,,,,,,,,,,,,,,,,,,,,,,,,,,,,sub-027,45.9,44.5,46.7,COM3,2024-02-20_13h45.14.957,2024_RDpaindiscrimination_maintask,2023.2.3,60.00949351827461,2024-02-20 13h45.33.573226 -0500,
1,0,1,0,14,0,14,0,,,,,,,,,,,,,1350.8143583000638,,,,,,,,1350.8015324000735,1355.7978281000396,1355.797834200086,1355.8142799000489,1367.831093900022,1367.798289700062,2,inactive,45.9,1367.7984314999776,1372.2664187999908,39.499999999999964,4.449,,,,,,,,,,,,,,,,,,,,,,,,,,,,,,,,,,,,,,sub-027,45.9,44.5,46.7,COM3,2024-02-20_13h45.14.957,2024_RDpaindiscrimination_maintask,2023.2.3,60.00949351827461,2024-02-20 13h45.33.573226 -0500,
1,0,1,0,15,0,15,0,,,,,,,,,,,,,1372.2812002000865,,,,,,,,1372.2671712000156,1377.2647316000657,1377.264737599995,1377.2811467000283,1389.2979394000722,1389.265210099984,3,active,44.5,1389.265351900016,1394.1337620000122,6.0,4.85,,,,,,,,,,,,,,,,,,,,,,,,,,,,,,,,,,,,,,sub-027,45.9,44.5,46.7,COM3,2024-02-20_13h45.14.957,2024_RDpaindiscrimination_maintask,2023.2.3,60.00949351827461,2024-02-20 13h45.33.573226 -0500,
1,0,1,0,,,,,0,0,0,0,0,0,0,0,,,,,1400.1814131999854,,,,,,1397.931978299981,1400.1650281000184,,,,,,,0,inactive,45.9,1417.1653340000194,1422.2325569000095,37.999999999999936,5.049,1394.1343006000388,1394.1481144999852,1397.9316515000537,1400.165332900011,1405.1649720000569,1405.1649790999945,1405.181662900024,1417.1982829000335,1417.165325500071,,,,,,,,,,,,,,,,,,,,,,,,,,,,,sub-027,45.9,44.5,46.7,COM3,2024-02-20_13h45.14.957,2024_RDpaindiscrimination_maintask,2023.2.3,60.00949351827461,2024-02-20 13h45.33.573226 -0500,
1,0,1,0,,,,,0,0,0,0,1,0,1,0,,,,,1422.2483450999716,,,,,,,,,,,,,,1,active,45.9,1439.232226400054,1442.2174726000521,23.00000000000006,2.967,,,,1422.232779800077,1427.2318922000704,1427.2318987000035,1427.2483974000206,1439.2652211000677,1439.2322177999886,,,,,,,,,,,,,,,,,,,,,,,,,,,,,sub-027,45.9,44.5,46.7,COM3,2024-02-20_13h45.14.957,2024_RDpaindiscrimination_maintask,2023.2.3,60.00949351827461,2024-02-20 13h45.33.573226 -0500,
1,0,1,0,,,,,0,0,0,0,,,,,0,0,0,0,1444.2652327000396,,,,,,,,,,,,,,2,active,,,,,,,,,,,,,,,1442.218017200008,1444.248836999992,1444.249152900069,1449.2488008000655,1449.2488076000009,1449.265290500014,1457.2488169000717,1457.2488169000717,1460.2153962000739,1460.2487458999967,1460.2487458999967,1460.2322594000725,4.68,4.12,468,412,8,1.2,0.75,pic-absent,0,m,0.9487626000773162,None,,,,,sub-027,45.9,44.5,46.7,COM3,2024-02-20_13h45.14.957,2024_RDpaindiscrimination_maintask,2023.2.3,60.00949351827461,2024-02-20 13h45.33.573226 -0500,
1,0,1,0,,,,,0,0,0,0,,,,,1,0,1,0,1460.2487458999967,,,,,,,,,,,,,,3,inactive,,,,,,,,,,,,,,,,,1460.2327831999864,1465.232370599988,1465.2323772000382,1465.2487952000229,1473.232240900048,1473.232240900048,1476.1989449000685,1476.2322803999996,1476.2322803999996,1476.2157693000045,3.26,5.54,326,554,8,1.2,0.75,pic-absent,0,m,0.6730813999893144,None,,,,,sub-027,45.9,44.5,46.7,COM3,2024-02-20_13h45.14.957,2024_RDpaindiscrimination_maintask,2023.2.3,60.00949351827461,2024-02-20 13h45.33.573226 -0500,
1,0,1,0,,,,,0,0,0,0,,,,,2,0,2,0,1476.2322803999996,,,,,,,,,,,,,,0,active,,,,,,,,,,,,,,,,,1476.2162153000245,1481.2157438000431,1481.2157505999785,1481.2322547000367,1489.2156666000374,1489.2156666000374,1492.182421399979,1492.2157026000787,1492.2157026000787,1492.1992127000121,3.45,5.35,345,535,8,1.2,0.75,pic-present,1,n,0.7733922000043094,None,,,,,sub-027,45.9,44.5,46.7,COM3,2024-02-20_13h45.14.957,2024_RDpaindiscrimination_maintask,2023.2.3,60.00949351827461,2024-02-20 13h45.33.573226 -0500,
1,0,1,0,,,,,0,0,0,0,,,,,3,0,3,0,1492.2157026000787,,,,,,,,,,,,,,1,active,,,,,,,,,,,,,,,,,1492.199679600075,1497.199239199981,1497.1992456000298,1497.215755000012,1505.1992222000845,1505.1992222000845,1508.1659181000432,1508.199197400012,1508.199197400012,1508.1827147000004,3.5,5.3,350,530,8,1.2,0.75,pic-present,1,n,1.2981218000641093,None,,,,,sub-027,45.9,44.5,46.7,COM3,2024-02-20_13h45.14.957,2024_RDpaindiscrimination_maintask,2023.2.3,60.00949351827461,2024-02-20 13h45.33.573226 -0500,
1,0,1,0,,,,,1,0,1,0,0,0,0,0,,,,,1510.165875100065,,,,,,1508.1832922999747,1510.149493600009,,,,,,,2,active,45.9,1527.149861300015,1533.850810599979,10.000000000000071,6.683,,,,1510.1497676,1515.1494322000071,1515.1494386000559,1515.1659887999995,1527.1827792000258,1527.1498525000643,,,,,,,,,,,,,,,,,,,,,,,,,,,,,sub-027,45.9,44.5,46.7,COM3,2024-02-20_13h45.14.957,2024_RDpaindiscrimination_maintask,2023.2.3,60.00949351827461,2024-02-20 13h45.33.573226 -0500,
1,0,1,0,,,,,1,0,1,0,1,0,1,0,,,,,1533.8661690000445,,,,,,,,,,,,,,3,inactive,45.9,1550.8501175000565,1558.5691456000786,38.00000000000004,7.701,,,,1533.8515032000141,1538.8497133000055,1538.8497199000558,1538.8662196000805,1550.883077400038,1550.8501090999926,,,,,,,,,,,,,,,,,,,,,,,,,,,,,sub-027,45.9,44.5,46.7,COM3,2024-02-20_13h45.14.957,2024_RDpaindiscrimination_maintask,2023.2.3,60.00949351827461,2024-02-20 13h45.33.573226 -0500,
1,0,1,0,,,,,1,0,1,0,,,,,0,0,0,0,1560.2665261999937,,,,,,,,,,,,,,0,inactive,,,,,,,,,,,,,,,1558.5696248000022,1560.2500965000363,1560.2503903000616,1565.2500114000868,1565.2500175000168,1565.2664661000017,1573.2501202999847,1573.2501202999847,1576.2166438000277,1576.2499371999875,1576.2499371999875,1576.2334591000108,3.81,4.99,381,499,8,1.2,0.75,pic-absent,0,m,1.151700200047344,None,,,,,sub-027,45.9,44.5,46.7,COM3,2024-02-20_13h45.14.957,2024_RDpaindiscrimination_maintask,2023.2.3,60.00949351827461,2024-02-20 13h45.33.573226 -0500,
1,0,1,0,,,,,1,0,1,0,,,,,1,0,1,0,1576.2499371999875,,,,,,,,,,,,,,1,inactive,,,,,,,,,,,,,,,,,1576.2340057999827,1581.2334712999873,1581.2334782000398,1581.2500495000277,1589.2335033999989,1589.2335033999989,1592.2001493000425,1592.2335051000118,1592.2335051000118,1592.2170186000876,3.96,4.84,396,484,8,1.2,0.75,pic-present,1,n,0.5001619999529794,None,,,,,sub-027,45.9,44.5,46.7,COM3,2024-02-20_13h45.14.957,2024_RDpaindiscrimination_maintask,2023.2.3,60.00949351827461,2024-02-20 13h45.33.573226 -0500,
1,0,1,0,,,,,1,0,1,0,,,,,2,0,2,0,1592.2335051000118,,,,,,,,,,,,,,2,active,,,,,,,,,,,,,,,,,1592.2174994000234,1597.2169928000076,1597.216999300057,1597.2334931000369,1605.2168982999865,1605.2168982999865,1608.1836103000678,1608.216907300055,1608.216907300055,1608.200413600076,3.43,5.37,343,537,8,1.2,0.75,pic-absent,0,m,0.9285336999455467,None,,,,,sub-027,45.9,44.5,46.7,COM3,2024-02-20_13h45.14.957,2024_RDpaindiscrimination_maintask,2023.2.3,60.00949351827461,2024-02-20 13h45.33.573226 -0500,
1,0,1,0,,,,,1,0,1,0,,,,,3,0,3,0,1608.216907300055,,,,,,,,,,,,,,3,active,,,,,,,,,,,,,,,,,1608.2009040000848,1613.2004879000597,1613.2004945999943,1613.2169572000857,1621.2004628999857,1621.2004628999857,1624.1671450000722,1624.2004764999729,1624.2004764999729,1624.1840019000228,4.68,4.12,468,412,8,1.2,0.75,pic-absent,0,m,2.770400600042194,None,,,,,sub-027,45.9,44.5,46.7,COM3,2024-02-20_13h45.14.957,2024_RDpaindiscrimination_maintask,2023.2.3,60.00949351827461,2024-02-20 13h45.33.573226 -0500,
1,0,1,0,,,,,2,0,2,0,0,0,0,0,,,,,1628.600462900009,,,,,,1624.1845204000128,1628.5841483999975,,,,,,,0,active,45.9,1645.584346699994,1648.0194521000376,17.50000000000014,2.417,,,,1628.5844585000305,1633.5841173999943,1633.5841243000468,1633.6005336000817,1645.617733900086,1645.5843372000381,,,,,,,,,,,,,,,,,,,,,,,,,,,,,sub-027,45.9,44.5,46.7,COM3,2024-02-20_13h45.14.957,2024_RDpaindiscrimination_maintask,2023.2.3,60.00949351827461,2024-02-20 13h45.33.573226 -0500,
1,0,1,0,,,,,2,0,2,0,1,0,1,0,,,,,1648.0341028000694,,,,,,,,,,,,,,1,inactive,45.9,1665.017997500021,1671.2872370000696,41.5,6.251,,,,1648.020214100019,1653.0176368000684,1653.0176431,1653.0341387999943,1665.0508643999929,1665.0179891000735,,,,,,,,,,,,,,,,,,,,,,,,,,,,,sub-027,45.9,44.5,46.7,COM3,2024-02-20_13h45.14.957,2024_RDpaindiscrimination_maintask,2023.2.3,60.00949351827461,2024-02-20 13h45.33.573226 -0500,
1,0,1,0,,,,,2,0,2,0,,,,,0,0,0,0,1673.8843441000208,,,,,,,,,,,,,,2,inactive,,,,,,,,,,,,,,,1671.2877925999928,1673.8678894999903,1673.8682013000362,1678.8679668999976,1678.8679737000493,1678.8843454000307,1686.8678099000826,1686.8678099000826,1689.8345017000102,1689.8677853000117,1689.8677853000117,1689.851302199997,3.97,4.83,397,483,8,1.2,0.75,pic-present,1,n,1.1859364999691024,None,,,,,sub-027,45.9,44.5,46.7,COM3,2024-02-20_13h45.14.957,2024_RDpaindiscrimination_maintask,2023.2.3,60.00949351827461,2024-02-20 13h45.33.573226 -0500,
1,0,1,0,,,,,2,0,2,0,,,,,1,0,1,0,1689.8677853000117,,,,,,,,,,,,,,3,active,,,,,,,,,,,,,,,,,1689.851860200055,1694.8513712000567,1694.8513781999936,1694.8678411000874,1702.8513053000206,1702.8513053000206,1705.817994000041,1705.851291100029,1705.851291100029,1705.834791100002,3.77,5.03,377,503,8,1.2,0.75,pic-present,1,n,0.6222063999157399,None,,,,,sub-027,45.9,44.5,46.7,COM3,2024-02-20_13h45.14.957,2024_RDpaindiscrimination_maintask,2023.2.3,60.00949351827461,2024-02-20 13h45.33.573226 -0500,
1,0,1,0,,,,,2,0,2,0,,,,,2,0,2,0,1705.851291100029,,,,,,,,,,,,,,0,inactive,,,,,,,,,,,,,,,,,1705.8352680000244,1710.8348267000401,1710.8348334999755,1710.8513734000735,1718.8347840000642,1718.8347840000642,1721.8015355999814,1721.834860400064,1721.834860400064,1721.8183913000394,3.53,5.27,353,527,8,1.2,0.75,pic-absent,0,m,2.3661460999865085,None,,,,,sub-027,45.9,44.5,46.7,COM3,2024-02-20_13h45.14.957,2024_RDpaindiscrimination_maintask,2023.2.3,60.00949351827461,2024-02-20 13h45.33.573226 -0500,
1,0,1,0,,,,,2,0,2,0,,,,,3,0,3,0,1721.834860400064,,,,,,,,,,,,,,1,inactive,,,,,,,,,,,,,,,,,1721.8188389000716,1726.818404700025,1726.8184108000714,1726.8349045000505,1734.8182903000852,1734.8182903000852,1737.7849109000526,1737.8182595000835,1737.8182595000835,1737.8018062000629,3.91,4.89,391,488,8,1.2,0.75,pic-present,1,n,0.6787119000218809,None,,,,,sub-027,45.9,44.5,46.7,COM3,2024-02-20_13h45.14.957,2024_RDpaindiscrimination_maintask,2023.2.3,60.00949351827461,2024-02-20 13h45.33.573226 -0500,
1,0,1,0,,,,,3,0,3,0,0,0,0,0,,,,,1739.7849424000597,,,,,,1737.8022722000023,1739.7685306000058,,,,,,,2,inactive,45.9,1756.7690018999856,1760.7866765999934,20.000000000000142,3.999,,,,1739.7688199999975,1744.7684835999971,1744.768489900045,1744.7849641999928,1756.8017877000384,1756.7689911000198,,,,,,,,,,,,,,,,,,,,,,,,,,,,,sub-027,45.9,44.5,46.7,COM3,2024-02-20_13h45.14.957,2024_RDpaindiscrimination_maintask,2023.2.3,60.00949351827461,2024-02-20 13h45.33.573226 -0500,
1,0,1,0,,,,,3,0,3,0,1,0,1,0,,,,,1760.801852600067,,,,,,,,,,,,,,3,active,45.9,1777.7859510000562,1782.138533200021,24.000000000000163,4.333,,,,1760.7874220000813,1765.785563100013,1765.7855689000571,1765.8019235000247,1777.8187903000508,1777.7859429999953,,,,,,,,,,,,,,,,,,,,,,,,,,,,,sub-027,45.9,44.5,46.7,COM3,2024-02-20_13h45.14.957,2024_RDpaindiscrimination_maintask,2023.2.3,60.00949351827461,2024-02-20 13h45.33.573226 -0500,
1,0,1,0,,,,,3,0,3,0,,,,,0,0,0,0,1783.918817400001,,,,,,,,,,,,,,0,active,,,,,,,,,,,,,,,1782.1390803999966,1783.902520100004,1783.9027937999927,1788.902372600045,1788.9023793999804,1788.9188375000376,1796.902279800037,1796.902279800037,1799.8689328000182,1799.9022680000635,1799.9022680000635,1799.8858120000223,4.44,4.36,444,436,8,1.2,0.75,pic-present,1,n,0.8826985999476165,None,,,,,sub-027,45.9,44.5,46.7,COM3,2024-02-20_13h45.14.957,2024_RDpaindiscrimination_maintask,2023.2.3,60.00949351827461,2024-02-20 13h45.33.573226 -0500,
1,0,1,0,,,,,3,0,3,0,,,,,1,0,1,0,1799.9022680000635,,,,,,,,,,,,,,1,active,,,,,,,,,,,,,,,,,1799.8863726999843,1804.8858119000215,1804.8858189000748,1804.902314200066,1812.8857410000637,1812.8857410000637,1815.8525225999765,1815.8857918999856,1815.8857918999856,1815.8692830000073,4.49,4.31,449,430,8,1.2,0.75,pic-absent,0,m,0.5155438000801951,None,,,,,sub-027,45.9,44.5,46.7,COM3,2024-02-20_13h45.14.957,2024_RDpaindiscrimination_maintask,2023.2.3,60.00949351827461,2024-02-20 13h45.33.573226 -0500,
1,0,1,0,,,,,3,0,3,0,,,,,2,0,2,0,1815.8857918999856,,,,,,,,,,,,,,2,inactive,,,,,,,,,,,,,,,,,1815.8697341000661,1820.8693102999823,1820.869317100034,1820.8858179000672,1828.8693212000653,1828.8693212000653,1831.835943800048,1831.869235399994,1831.869235399994,1831.853114400059,4.16,4.64,416,463,8,1.2,0.75,pic-present,1,n,1.1719976000022143,None,,,,,sub-027,45.9,44.5,46.7,COM3,2024-02-20_13h45.14.957,2024_RDpaindiscrimination_maintask,2023.2.3,60.00949351827461,2024-02-20 13h45.33.573226 -0500,
1,0,1,0,,,,,3,0,3,0,,,,,3,0,3,0,1831.869235399994,,,,,,,,,,,,,,3,inactive,,,,,,,,,,,,,,,,,1831.8535743000684,1836.8528062000405,1836.8528125999728,1836.8693191000493,1844.8527296000393,1844.8527296000393,1847.8195287000854,1847.8528465999989,1847.8528465999989,1847.8365052000154,3.47,5.33,347,533,8,1.2,0.75,pic-absent,0,m,1.0838518000673503,None,,,,,sub-027,45.9,44.5,46.7,COM3,2024-02-20_13h45.14.957,2024_RDpaindiscrimination_maintask,2023.2.3,60.00949351827461,2024-02-20 13h45.33.573226 -0500,
,,,,,,,,,,,,,,,,,,,,,,,,,,,,,,,,,,,,,,,,,,,,,,,,,,,,,,,,,,,,,,,,,,,,,,,,,,1847.836968800053,1851.1532137000468,1851.153234599973,1861.1530185000738,,,,,,,,,,,
