trials.thisRepN,trials.thisTrialN,trials.thisN,trials.thisIndex,loop_test.thisRepN,loop_test.thisTrialN,loop_test.thisN,loop_test.thisIndex,loop_eval_discri.thisRepN,loop_eval_discri.thisTrialN,loop_eval_discri.thisN,loop_eval_discri.thisIndex,loop_eval.thisRepN,loop_eval.thisTrialN,loop_eval.thisN,loop_eval.thisIndex,loop_discri.thisRepN,loop_discri.thisTrialN,loop_discri.thisN,loop_discri.thisIndex,thisRow.t,notes,Set_up.started,Set_up.stopped,electrode_check.started,electrode_check.stopped,instructions_eval.started,instructions_eval.stopped,pause_5_test.started,pause_5_test.stopped,Phase_Test.started,thermode_locali.started,thermode_locali.stopped,Phase_Test.stopped,loca_thermode,condition,temp_trial_sent,eval_douleur.started,eval_douleur.stopped,ratingScale.response,ratingScale.rt,Fin_test.started,text.started,Fin_test.stopped,pause_5_EVA.started,pause_5_EVA.stopped,tâche_EVA.started,thermode_locali_EVA.started,thermode_locali_EVA.stopped,tâche_EVA.stopped,instructions_discrim.started,instructions_discrim.stopped,pause_5_pic.started,pause_5_pic.stopped,tâche_PIC.started,thermode_locali_pic.started,percu_or.started,responser.started,thermode_locali_pic.stopped,percu_or.stopped,responser.stopped,tâche_PIC.stopped,dur_plateau1,dur_plateau2,dur_plateau1_sent,dur_plateau2_sent,start_plateau_2_resp,dur_pic,dur_rise,pic_presence,pic_response,discrimin_resp.keys,discrimin_resp.rt,discrimin_resp.duration,break_entre_bloc.started,break_entre_bloc.stopped,merci.started,merci.stopped,participant,temp_flat,temp_active,temp_pic_set,com_thermode,date,expName,psychopyVersion,frameRate,expStart,
0,0,0,0,0,0,0,0,,,,,,,,,,,,,94.29618429997936,,0.011890899972058833,86.89640840003267,86.89680810004938,91.31313779996708,91.3131463000318,94.27982900000643,94.28009669994935,99.27977489994373,99.27978270000312,99.29631869995501,111.31304689997341,111.28027500002645,0,inactive,45.3,111.28050240001176,113.68306189996656,17.00000000000014,2.379,,,,,,,,,,,,,,,,,,,,,,,,,,,,,,,,,,,,,,sub-016,45.3,43.4,46.1,COM3,2024-02-06_16h34.29.008,2024_RDpaindiscrimination_maintask,2023.2.3,59.97702881855129,2024-02-06 16h34.51.762996 -0500,
0,0,0,0,1,0,1,0,,,,,,,,,,,,,113.69647750002332,,,,,,,,113.68402649997734,118.6799875999568,118.6799946000101,118.69646120001562,130.71341179998126,130.68049980001524,1,active,43.4,130.68064509995747,133.54984540003352,12.500000000000002,2.85,,,,,,,,,,,,,,,,,,,,,,,,,,,,,,,,,,,,,,sub-016,45.3,43.4,46.1,COM3,2024-02-06_16h34.29.008,2024_RDpaindiscrimination_maintask,2023.2.3,59.97702881855129,2024-02-06 16h34.51.762996 -0500,
0,0,0,0,2,0,2,0,,,,,,,,,,,,,133.56335489999037,,,,,,,,133.55058040004224,138.54690930002835,138.54691629996523,138.5634246999398,150.58021219994407,150.54734759998973,2,inactive,45.3,150.54749679996166,153.86572230001912,26.500000000000085,3.299,,,,,,,,,,,,,,,,,,,,,,,,,,,,,,,,,,,,,,sub-016,45.3,43.4,46.1,COM3,2024-02-06_16h34.29.008,2024_RDpaindiscrimination_maintask,2023.2.3,59.97702881855129,2024-02-06 16h34.51.762996 -0500,
0,0,0,0,3,0,3,0,,,,,,,,,,,,,153.88026310002897,,,,,,,,153.8665058000479,158.86379019997548,158.8637969000265,158.88030299998354,170.89710279996507,170.8642475999659,3,active,43.4,170.86438799998723,174.91567739995662,13.500000000000208,4.033,,,,,,,,,,,,,,,,,,,,,,,,,,,,,,,,,,,,,,sub-016,45.3,43.4,46.1,COM3,2024-02-06_16h34.29.008,2024_RDpaindiscrimination_maintask,2023.2.3,59.97702881855129,2024-02-06 16h34.51.762996 -0500,
0,0,0,0,4,0,4,0,,,,,,,,,,,,,174.93053450004663,,,,,,,,174.91653649997897,179.91411510005128,179.91412189998664,179.9306249000365,191.947426800034,191.91455860005226,0,active,43.4,191.91470470000058,195.81689440004993,19.500000000000178,3.883,,,,,,,,,,,,,,,,,,,,,,,,,,,,,,,,,,,,,,sub-016,45.3,43.4,46.1,COM3,2024-02-06_16h34.29.008,2024_RDpaindiscrimination_maintask,2023.2.3,59.97702881855129,2024-02-06 16h34.51.762996 -0500,
0,0,0,0,5,0,5,0,,,,,,,,,,,,,195.8308015000075,,,,,,,,195.8177510999376,200.81435160001274,200.81436339998618,200.83085030002985,212.8476466999855,212.81481450004503,1,inactive,45.3,212.81496550003067,217.0994442999363,16.000000000000068,4.265,,,,,,,,,,,,,,,,,,,,,,,,,,,,,,,,,,,,,,sub-016,45.3,43.4,46.1,COM3,2024-02-06_16h34.29.008,2024_RDpaindiscrimination_maintask,2023.2.3,59.97702881855129,2024-02-06 16h34.51.762996 -0500,
0,0,0,0,6,0,6,0,,,,,,,,,,,,,217.11435769998934,,,,,,,,217.10020190000068,222.0979221999878,222.09792910004035,222.11441899999045,234.13118120003492,234.09837160003372,2,active,43.4,234.0985156999668,237.63284890004434,14.499999999999995,3.515,,,,,,,,,,,,,,,,,,,,,,,,,,,,,,,,,,,,,,sub-016,45.3,43.4,46.1,COM3,2024-02-06_16h34.29.008,2024_RDpaindiscrimination_maintask,2023.2.3,59.97702881855129,2024-02-06 16h34.51.762996 -0500,
0,0,0,0,7,0,7,0,,,,,,,,,,,,,237.64791109994985,,,,,,,,237.63358699996024,242.63147659995593,242.63148380001076,242.64792709995527,254.66478600003757,254.63190150004812,3,inactive,45.3,254.63204940001015,257.951377099962,28.99999999999998,3.3,,,,,,,,,,,,,,,,,,,,,,,,,,,,,,,,,,,,,,sub-016,45.3,43.4,46.1,COM3,2024-02-06_16h34.29.008,2024_RDpaindiscrimination_maintask,2023.2.3,59.97702881855129,2024-02-06 16h34.51.762996 -0500,
0,0,0,0,8,0,8,0,,,,,,,,,,,,,257.964805399999,,,,,,,,257.95219979994,262.9483672999777,262.94837390002795,262.9648346999893,274.98168149997946,274.94882920000236,0,inactive,45.3,274.9489831000101,278.3682262999937,29.500000000000178,3.4,,,,,,,,,,,,,,,,,,,,,,,,,,,,,,,,,,,,,,sub-016,45.3,43.4,46.1,COM3,2024-02-06_16h34.29.008,2024_RDpaindiscrimination_maintask,2023.2.3,59.97702881855129,2024-02-06 16h34.51.762996 -0500,
0,0,0,0,9,0,9,0,,,,,,,,,,,,,278.38177380000707,,,,,,,,278.3689553999575,283.3652695999481,283.3652770000044,283.38173399993684,295.3985577999847,295.36571110005025,1,active,43.4,295.3658529999666,299.0511700999923,17.000000000000103,3.667,,,,,,,,,,,,,,,,,,,,,,,,,,,,,,,,,,,,,,sub-016,45.3,43.4,46.1,COM3,2024-02-06_16h34.29.008,2024_RDpaindiscrimination_maintask,2023.2.3,59.97702881855129,2024-02-06 16h34.51.762996 -0500,
0,0,0,0,10,0,10,0,,,,,,,,,,,,,299.06525969994254,,,,,,,,299.05199639999773,304.0488249999471,304.04883159999736,304.06524879997596,316.082084499998,316.04925050004385,2,inactive,45.3,316.0494045999367,318.8005451000063,47.50000000000001,2.732,,,,,,,,,,,,,,,,,,,,,,,,,,,,,,,,,,,,,,sub-016,45.3,43.4,46.1,COM3,2024-02-06_16h34.29.008,2024_RDpaindiscrimination_maintask,2023.2.3,59.97702881855129,2024-02-06 16h34.51.762996 -0500,
0,0,0,0,11,0,11,0,,,,,,,,,,,,,318.8155323000392,,,,,,,,318.8013425000245,323.79905619996134,323.7990633000154,323.81551610003226,335.832342299982,335.7994810999371,3,inactive,45.3,335.7996304000262,338.3013297000434,61.499999999999886,2.483,,,,,,,,,,,,,,,,,,,,,,,,,,,,,,,,,,,,,,sub-016,45.3,43.4,46.1,COM3,2024-02-06_16h34.29.008,2024_RDpaindiscrimination_maintask,2023.2.3,59.97702881855129,2024-02-06 16h34.51.762996 -0500,
0,0,0,0,12,0,12,0,,,,,,,,,,,,,338.3157115000067,,,,,,,,338.30210289999377,343.2992829999421,343.2992893999908,343.31576010002755,355.33244579995517,355.2996249999851,0,active,43.4,355.29977309994865,358.11909619998187,16.00000000000014,2.8,,,,,,,,,,,,,,,,,,,,,,,,,,,,,,,,,,,,,,sub-016,45.3,43.4,46.1,COM3,2024-02-06_16h34.29.008,2024_RDpaindiscrimination_maintask,2023.2.3,59.97702881855129,2024-02-06 16h34.51.762996 -0500,
0,0,0,0,13,0,13,0,,,,,,,,,,,,,358.13249849993736,,,,,,,,358.1199633999495,363.1160581000149,363.1160648999503,363.13254100002814,375.1493267000187,375.1164673999883,1,inactive,45.3,375.1166245000204,378.2180089999456,23.500000000000092,3.082,,,,,,,,,,,,,,,,,,,,,,,,,,,,,,,,,,,,,,sub-016,45.3,43.4,46.1,COM3,2024-02-06_16h34.29.008,2024_RDpaindiscrimination_maintask,2023.2.3,59.97702881855129,2024-02-06 16h34.51.762996 -0500,
0,0,0,0,14,0,14,0,,,,,,,,,,,,,378.2326969000278,,,,,,,,378.21889300004113,383.21635230001993,383.2163593999576,383.23279399995226,395.24957919993903,395.21686070004944,2,active,43.4,395.2170032999711,398.63526020001154,19.000000000000213,3.399,,,,,,,,,,,,,,,,,,,,,,,,,,,,,,,,,,,,,,sub-016,45.3,43.4,46.1,COM3,2024-02-06_16h34.29.008,2024_RDpaindiscrimination_maintask,2023.2.3,59.97702881855129,2024-02-06 16h34.51.762996 -0500,
0,0,0,0,15,0,15,0,,,,,,,,,,,,,398.6496621000115,,,,,,,,398.63606509997044,403.6331722999457,403.63317950000055,403.6496629000176,415.66646019998007,415.6336041999748,3,active,43.4,415.6337457000045,420.0525659000268,26.00000000000012,4.4,,,,,,,,,,,,,,,,,,,,,,,,,,,,,,,,,,,,,,sub-016,45.3,43.4,46.1,COM3,2024-02-06_16h34.29.008,2024_RDpaindiscrimination_maintask,2023.2.3,59.97702881855129,2024-02-06 16h34.51.762996 -0500,
0,0,0,0,,,,,0,0,0,0,0,0,0,0,,,,,434.2166632999433,,,,,,432.35059449996334,434.2002637999831,,,,,,,0,inactive,45.3,451.20065400004387,453.66946869995445,44.499999999999915,2.45,420.05312860000413,420.0665851000231,432.35028040001635,434.2005488999421,439.2002481999807,439.20025610004086,439.21671910001896,451.2335133999586,451.2006452999776,,,,,,,,,,,,,,,,,,,,,,,,,,,,,sub-016,45.3,43.4,46.1,COM3,2024-02-06_16h34.29.008,2024_RDpaindiscrimination_maintask,2023.2.3,59.97702881855129,2024-02-06 16h34.51.762996 -0500,
0,0,0,0,,,,,0,0,0,0,1,0,1,0,,,,,453.6835831999779,,,,,,,,,,,,,,1,active,45.3,470.66747270000633,474.13595609995537,15.500000000000068,3.449,,,,453.67025399999693,458.6670956000453,458.6671045999974,458.6836156999925,470.70049489999656,470.6674646999454,,,,,,,,,,,,,,,,,,,,,,,,,,,,,sub-016,45.3,43.4,46.1,COM3,2024-02-06_16h34.29.008,2024_RDpaindiscrimination_maintask,2023.2.3,59.97702881855129,2024-02-06 16h34.51.762996 -0500,
0,0,0,0,,,,,0,0,0,0,,,,,0,0,0,0,478.51719269994646,,,,,,,,,,,,,,2,active,,,,,,,,,,,,,,,474.13652529998217,478.5007880999474,478.5011048000306,483.50074579997454,483.5007542000385,483.517240999965,491.5006671999581,491.5006671999581,494.46737710002344,494.50070129998494,494.50070129998494,494.48423669999465,3.42,5.38,342,538,8,1.2,0.75,pic-absent,0,n,1.1515621999278665,None,,,,,sub-016,45.3,43.4,46.1,COM3,2024-02-06_16h34.29.008,2024_RDpaindiscrimination_maintask,2023.2.3,59.97702881855129,2024-02-06 16h34.51.762996 -0500,
0,0,0,0,,,,,0,0,0,0,,,,,1,0,1,0,494.50070129998494,,,,,,,,,,,,,,3,active,,,,,,,,,,,,,,,,,494.48488330002874,499.48427110002376,499.48427909996826,499.50072859996,507.4841473000124,507.4841473000124,510.45084960001986,510.4842067999998,510.4842067999998,510.46770949999336,4.45,4.35,445,434,8,1.2,0.75,pic-absent,0,n,1.20444890006911,None,,,,,sub-016,45.3,43.4,46.1,COM3,2024-02-06_16h34.29.008,2024_RDpaindiscrimination_maintask,2023.2.3,59.97702881855129,2024-02-06 16h34.51.762996 -0500,
0,0,0,0,,,,,0,0,0,0,,,,,2,0,2,0,510.4842067999998,,,,,,,,,,,,,,0,inactive,,,,,,,,,,,,,,,,,510.46818019996863,515.4677310000407,515.4677387999836,515.4842428000411,523.4677917000372,523.4677917000372,526.4343603999587,526.4677399999928,526.4677399999928,526.4512336000334,4.11,4.69,411,469,8,1.2,0.75,pic-present,1,m,0.31623850006144494,None,,,,,sub-016,45.3,43.4,46.1,COM3,2024-02-06_16h34.29.008,2024_RDpaindiscrimination_maintask,2023.2.3,59.97702881855129,2024-02-06 16h34.51.762996 -0500,
0,0,0,0,,,,,0,0,0,0,,,,,3,0,3,0,526.4677399999928,,,,,,,,,,,,,,1,active,,,,,,,,,,,,,,,,,526.4516848999774,531.4513006999623,531.4513081000187,531.467770599993,539.451217200025,539.451217200025,542.4178899000399,542.4512145000044,542.4512145000044,542.4347650000127,3.27,5.53,327,553,8,1.2,0.75,pic-absent,0,n,0.6541561000049114,None,,,,,sub-016,45.3,43.4,46.1,COM3,2024-02-06_16h34.29.008,2024_RDpaindiscrimination_maintask,2023.2.3,59.97702881855129,2024-02-06 16h34.51.762996 -0500,
0,0,0,0,,,,,1,0,1,0,0,0,0,0,,,,,544.317902800045,,,,,,542.4352477999637,544.3017186999787,,,,,,,2,active,45.3,561.3019228000194,565.9199786999961,24.50000000000002,4.599,,,,544.3020395999774,549.3014579999726,549.3014653000282,549.3179599000141,561.3347530999454,561.3019137999509,,,,,,,,,,,,,,,,,,,,,,,,,,,,,sub-016,45.3,43.4,46.1,COM3,2024-02-06_16h34.29.008,2024_RDpaindiscrimination_maintask,2023.2.3,59.97702881855129,2024-02-06 16h34.51.762996 -0500,
0,0,0,0,,,,,1,0,1,0,1,0,1,0,,,,,565.9348545999965,,,,,,,,,,,,,,3,inactive,45.3,582.9187636999413,587.4534941000165,24.500000000000064,4.516,,,,565.920746000018,570.9183940000366,570.9184017999796,570.9349138999823,582.9517025999958,582.9187554999953,,,,,,,,,,,,,,,,,,,,,,,,,,,,,sub-016,45.3,43.4,46.1,COM3,2024-02-06_16h34.29.008,2024_RDpaindiscrimination_maintask,2023.2.3,59.97702881855129,2024-02-06 16h34.51.762996 -0500,
0,0,0,0,,,,,1,0,1,0,,,,,0,0,0,0,589.1517778999405,,,,,,,,,,,,,,0,active,,,,,,,,,,,,,,,587.4540260999929,589.1353754999582,589.1356857999926,594.1353463999694,594.1353547000326,594.1518438999774,602.1352592000039,602.1352592000039,605.1019587999908,605.1353062000126,605.1353062000126,605.1188124000328,3.82,4.98,382,498,8,1.2,0.75,pic-present,1,m,0.40124930010642856,None,,,,,sub-016,45.3,43.4,46.1,COM3,2024-02-06_16h34.29.008,2024_RDpaindiscrimination_maintask,2023.2.3,59.97702881855129,2024-02-06 16h34.51.762996 -0500,
0,0,0,0,,,,,1,0,1,0,,,,,1,0,1,0,605.1353062000126,,,,,,,,,,,,,,1,inactive,,,,,,,,,,,,,,,,,605.1193567999871,610.1188456999371,610.1188534999965,610.1353115999373,618.1187374000438,618.1187374000438,621.085437700036,621.1187747999793,621.1187747999793,621.1023222999647,4.31,4.49,430,449,8,1.2,0.75,pic-absent,0,n,0.5494189000455663,None,,,,,sub-016,45.3,43.4,46.1,COM3,2024-02-06_16h34.29.008,2024_RDpaindiscrimination_maintask,2023.2.3,59.97702881855129,2024-02-06 16h34.51.762996 -0500,
0,0,0,0,,,,,1,0,1,0,,,,,2,0,2,0,621.1187747999793,,,,,,,,,,,,,,2,active,,,,,,,,,,,,,,,,,621.1028066000436,626.1023309000302,626.1023386999732,626.1188360999804,634.1022537000244,634.1022537000244,637.0689521000022,637.1022912999615,637.1022912999615,637.0858007000061,4.16,4.64,416,463,8,1.2,0.75,pic-absent,0,n,0.654241600073874,None,,,,,sub-016,45.3,43.4,46.1,COM3,2024-02-06_16h34.29.008,2024_RDpaindiscrimination_maintask,2023.2.3,59.97702881855129,2024-02-06 16h34.51.762996 -0500,
0,0,0,0,,,,,1,0,1,0,,,,,3,0,3,0,637.1022912999615,,,,,,,,,,,,,,3,active,,,,,,,,,,,,,,,,,637.0862576999934,642.0858739999821,642.0858818000415,642.1023450000212,650.0857660999754,650.0857660999754,653.0525114999618,653.085802400019,653.085802400019,653.0693050000118,3.83,4.97,383,497,8,1.2,0.75,pic-present,1,m,0.3340559999924153,None,,,,,sub-016,45.3,43.4,46.1,COM3,2024-02-06_16h34.29.008,2024_RDpaindiscrimination_maintask,2023.2.3,59.97702881855129,2024-02-06 16h34.51.762996 -0500,
0,0,0,0,,,,,2,0,2,0,0,0,0,0,,,,,655.1192047999939,,,,,,653.0698209999828,655.102800099994,,,,,,,0,inactive,45.3,672.1028429999715,676.171062599984,29.500000000000046,4.05,,,,655.1031557000242,660.102716299938,660.102724299999,660.1192416000413,,672.1028344000224,,,,,,,,,,,,,,,,,,,,,,,,,,,,,sub-016,45.3,43.4,46.1,COM3,2024-02-06_16h34.29.008,2024_RDpaindiscrimination_maintask,2023.2.3,59.97702881855129,2024-02-06 16h34.51.762996 -0500,
0,0,0,0,,,,,2,0,2,0,1,0,1,0,,,,,676.1862012000056,,,,,,,,,,,,,,1,active,45.3,693.1700228999835,696.0884731999831,19.500000000000036,2.899,,,,676.1718312000157,681.1696833999595,681.1696916000219,681.1862257999601,693.20304329996,693.1700146000367,,,,,,,,,,,,,,,,,,,,,,,,,,,,,sub-016,45.3,43.4,46.1,COM3,2024-02-06_16h34.29.008,2024_RDpaindiscrimination_maintask,2023.2.3,59.97702881855129,2024-02-06 16h34.51.762996 -0500,
0,0,0,0,,,,,2,0,2,0,,,,,0,0,0,0,697.9697577999905,,,,,,,,,,,,,,2,inactive,,,,,,,,,,,,,,,696.088997600018,697.9534022000153,697.9537143999478,702.9533134000376,702.9533207999775,702.9697549999692,710.953254199936,710.953254199936,713.9198749000207,713.9532874999568,713.9532874999568,713.936797900009,4.29,4.51,429,451,8,1.2,0.75,pic-absent,0,n,0.4554449999704957,None,,,,,sub-016,45.3,43.4,46.1,COM3,2024-02-06_16h34.29.008,2024_RDpaindiscrimination_maintask,2023.2.3,59.97702881855129,2024-02-06 16h34.51.762996 -0500,
0,0,0,0,,,,,2,0,2,0,,,,,1,0,1,0,713.9532874999568,,,,,,,,,,,,,,3,inactive,,,,,,,,,,,,,,,,,713.9373715999536,718.9367648999905,718.9367727000499,718.9532841000473,726.9367145999568,726.9367145999568,729.9034551000223,729.9368032000493,729.9368032000493,729.9203164000064,3.65,5.15,365,515,8,1.2,0.75,pic-present,1,m,0.22866240004077554,None,,,,,sub-016,45.3,43.4,46.1,COM3,2024-02-06_16h34.29.008,2024_RDpaindiscrimination_maintask,2023.2.3,59.97702881855129,2024-02-06 16h34.51.762996 -0500,
0,0,0,0,,,,,2,0,2,0,,,,,2,0,2,0,729.9368032000493,,,,,,,,,,,,,,0,active,,,,,,,,,,,,,,,,,729.9208113000495,734.920337999938,734.9203462000005,734.9368051999481,742.9202778999461,742.9202778999461,745.8869693999877,745.9203160000034,745.9203160000034,745.9038242000388,3.86,4.94,386,494,8,1.2,0.75,pic-present,1,m,0.32879549998324364,None,,,,,sub-016,45.3,43.4,46.1,COM3,2024-02-06_16h34.29.008,2024_RDpaindiscrimination_maintask,2023.2.3,59.97702881855129,2024-02-06 16h34.51.762996 -0500,
0,0,0,0,,,,,2,0,2,0,,,,,3,0,3,0,745.9203160000034,,,,,,,,,,,,,,1,inactive,,,,,,,,,,,,,,,,,745.9043121000286,750.9037979999557,750.9038102000486,750.9203135999851,758.9037950000493,758.9037950000493,761.8704920000164,761.9038270999445,761.9038270999445,761.8873345999746,4.62,4.18,462,418,8,1.2,0.75,pic-absent,1,m,0.4277798000257462,None,,,,,sub-016,45.3,43.4,46.1,COM3,2024-02-06_16h34.29.008,2024_RDpaindiscrimination_maintask,2023.2.3,59.97702881855129,2024-02-06 16h34.51.762996 -0500,
0,0,0,0,,,,,3,0,3,0,0,0,0,0,,,,,762.5538345000241,,,,,,761.8878496999387,762.5374169000424,,,,,,,2,active,45.3,779.5377178000053,784.090654999949,41.5,4.534,,,,762.5377302999841,767.5373871000484,767.5373999000294,767.5538821000373,779.5707093999954,779.5377094999421,,,,,,,,,,,,,,,,,,,,,,,,,,,,,sub-016,45.3,43.4,46.1,COM3,2024-02-06_16h34.29.008,2024_RDpaindiscrimination_maintask,2023.2.3,59.97702881855129,2024-02-06 16h34.51.762996 -0500,
0,0,0,0,,,,,3,0,3,0,1,0,1,0,,,,,784.1040596000385,,,,,,,,,,,,,,3,inactive,45.3,801.0880445999792,804.4891574999783,7.499999999999998,3.382,,,,784.0914353999542,789.0876875999384,789.0876943999901,789.1041267999681,801.1209325999953,801.088036900037,,,,,,,,,,,,,,,,,,,,,,,,,,,,,sub-016,45.3,43.4,46.1,COM3,2024-02-06_16h34.29.008,2024_RDpaindiscrimination_maintask,2023.2.3,59.97702881855129,2024-02-06 16h34.51.762996 -0500,
0,0,0,0,,,,,3,0,3,0,,,,,0,0,0,0,808.0543486999813,,,,,,,,,,,,,,0,inactive,,,,,,,,,,,,,,,804.4896895999555,808.0379355000332,808.0382343999809,813.0379026000155,813.037910199957,813.0543735999381,821.0377028000075,821.0377028000075,824.0044091000455,824.0377702999394,824.0377702999394,824.0212521000067,3.34,5.46,334,546,8,1.2,0.75,pic-present,1,m,0.3704322000266984,None,,,,,sub-016,45.3,43.4,46.1,COM3,2024-02-06_16h34.29.008,2024_RDpaindiscrimination_maintask,2023.2.3,59.97702881855129,2024-02-06 16h34.51.762996 -0500,
0,0,0,0,,,,,3,0,3,0,,,,,1,0,1,0,824.0377702999394,,,,,,,,,,,,,,1,active,,,,,,,,,,,,,,,,,824.0218005999923,829.0213008000283,829.0213091999758,829.0377981000347,837.0212199999951,837.0212199999951,839.9879189999774,840.021258499939,840.021258499939,840.0048315000022,3.61,5.19,361,519,8,1.2,0.75,pic-present,1,m,0.3311344999819994,None,,,,,sub-016,45.3,43.4,46.1,COM3,2024-02-06_16h34.29.008,2024_RDpaindiscrimination_maintask,2023.2.3,59.97702881855129,2024-02-06 16h34.51.762996 -0500,
0,0,0,0,,,,,3,0,3,0,,,,,2,0,2,0,840.021258499939,,,,,,,,,,,,,,2,inactive,,,,,,,,,,,,,,,,,840.0052995999577,845.005036400049,845.0050443999935,845.0214266999392,853.0047330999514,853.0047330999514,855.9714395999908,856.0047678999836,856.0047678999836,855.9882951000473,4.1,4.7,409,470,8,1.2,0.75,pic-absent,0,n,1.0428103000158444,None,,,,,sub-016,45.3,43.4,46.1,COM3,2024-02-06_16h34.29.008,2024_RDpaindiscrimination_maintask,2023.2.3,59.97702881855129,2024-02-06 16h34.51.762996 -0500,
0,0,0,0,,,,,3,0,3,0,,,,,3,0,3,0,856.0047678999836,,,,,,,,,,,,,,3,inactive,,,,,,,,,,,,,,,,,855.9887838000432,860.9885383000365,860.9885458999779,861.0049531999975,868.9883707000408,868.9883707000408,871.954945400008,871.9882710999809,871.9882710999809,871.9717942000134,3.73,5.07,373,507,8,1.2,0.75,pic-present,1,m,0.3968700000550598,None,,,,,sub-016,45.3,43.4,46.1,COM3,2024-02-06_16h34.29.008,2024_RDpaindiscrimination_maintask,2023.2.3,59.97702881855129,2024-02-06 16h34.51.762996 -0500,
1,0,1,0,0,0,0,0,,,,,,,,,,,,,951.4224827999715,,,,941.6394901999738,943.3560042999452,943.3560142000206,951.406064699986,951.4063838999718,956.4060311999638,956.4060377000133,956.4225321999984,968.4394111000001,968.4064794000005,0,inactive,45.3,968.4066965000238,971.8093043999979,49.500000000000036,3.38,,,,,,,,,,,,,,,,,,,,,,,,,,,,,,,,,,871.9722402000334,941.6393635999411,,,sub-016,45.3,43.4,46.1,COM3,2024-02-06_16h34.29.008,2024_RDpaindiscrimination_maintask,2023.2.3,59.97702881855129,2024-02-06 16h34.51.762996 -0500,
1,0,1,0,1,0,1,0,,,,,,,,,,,,,971.8227185000433,,,,,,,,971.810227900045,976.8063078999985,976.8063147000503,976.8227976999478,988.8395992999431,988.8068344000494,1,active,43.4,988.8069814000046,991.9927518999903,16.50000000000014,3.167,,,,,,,,,,,,,,,,,,,,,,,,,,,,,,,,,,,,,,sub-016,45.3,43.4,46.1,COM3,2024-02-06_16h34.29.008,2024_RDpaindiscrimination_maintask,2023.2.3,59.97702881855129,2024-02-06 16h34.51.762996 -0500,
1,0,1,0,2,0,2,0,,,,,,,,,,,,,992.006325299968,,,,,,,,991.9935565999476,996.9898624999914,996.9898693000432,997.0063295,1009.0231552999467,1008.990400300012,2,inactive,45.3,1008.990543999942,1011.5424301000312,41.50000000000003,2.533,,,,,,,,,,,,,,,,,,,,,,,,,,,,,,,,,,,,,,sub-016,45.3,43.4,46.1,COM3,2024-02-06_16h34.29.008,2024_RDpaindiscrimination_maintask,2023.2.3,59.97702881855129,2024-02-06 16h34.51.762996 -0500,
1,0,1,0,3,0,3,0,,,,,,,,,,,,,1011.5565495999763,,,,,,,,1011.5432068000082,1016.5401169999968,1016.5401240000501,1016.5565900000511,1028.5734265999636,1028.5405716999667,3,inactive,45.3,1028.5407297000056,1031.6597436999436,71.99999999999982,3.101,,,,,,,,,,,,,,,,,,,,,,,,,,,,,,,,,,,,,,sub-016,45.3,43.4,46.1,COM3,2024-02-06_16h34.29.008,2024_RDpaindiscrimination_maintask,2023.2.3,59.97702881855129,2024-02-06 16h34.51.762996 -0500,
1,0,1,0,4,0,4,0,,,,,,,,,,,,,1031.6734299999662,,,,,,,,1031.6605539999437,1036.6570278999861,1036.6570349000394,1036.6735210999614,1048.6902824999997,1048.6574353999458,0,active,43.4,1048.6575985000236,1052.426689099986,22.0000000000001,3.75,,,,,,,,,,,,,,,,,,,,,,,,,,,,,,,,,,,,,,sub-016,45.3,43.4,46.1,COM3,2024-02-06_16h34.29.008,2024_RDpaindiscrimination_maintask,2023.2.3,59.97702881855129,2024-02-06 16h34.51.762996 -0500,
1,0,1,0,5,0,5,0,,,,,,,,,,,,,1052.4403661999386,,,,,,,,1052.427466299967,1057.42391709995,1057.423924200004,1057.440477599972,1069.4572214999935,1069.4243539000163,1,inactive,45.3,1069.4244930000277,1071.9930736999959,23.500000000000092,2.55,,,,,,,,,,,,,,,,,,,,,,,,,,,,,,,,,,,,,,sub-016,45.3,43.4,46.1,COM3,2024-02-06_16h34.29.008,2024_RDpaindiscrimination_maintask,2023.2.3,59.97702881855129,2024-02-06 16h34.51.762996 -0500,
1,0,1,0,6,0,6,0,,,,,,,,,,,,,1072.0072326000081,,,,,,,,1071.9938398000086,1076.990794799989,1076.9908016000409,1077.0074232999468,1089.0240722999442,1088.9912009999389,2,active,43.4,1088.9913485000143,1091.1933455000399,7.000000000000024,2.183,,,,,,,,,,,,,,,,,,,,,,,,,,,,,,,,,,,,,,sub-016,45.3,43.4,46.1,COM3,2024-02-06_16h34.29.008,2024_RDpaindiscrimination_maintask,2023.2.3,59.97702881855129,2024-02-06 16h34.51.762996 -0500,
1,0,1,0,7,0,7,0,,,,,,,,,,,,,1091.2074063000036,,,,,,,,1091.194146499969,1096.1910695999395,1096.191076899995,1096.2075171000324,1108.2242948999628,1108.1914490000345,3,inactive,45.3,1108.1915910999523,1112.192618399975,15.000000000000174,3.982,,,,,,,,,,,,,,,,,,,,,,,,,,,,,,,,,,,,,,sub-016,45.3,43.4,46.1,COM3,2024-02-06_16h34.29.008,2024_RDpaindiscrimination_maintask,2023.2.3,59.97702881855129,2024-02-06 16h34.51.762996 -0500,
1,0,1,0,8,0,8,0,,,,,,,,,,,,,1112.207725299988,,,,,,,,1112.1933891000226,1117.191290399991,1117.1912974000443,1117.2077748000156,1129.224574199994,1129.1917948999908,0,active,43.4,1129.191937400028,1133.4096239999635,23.5000000000002,4.198,,,,,,,,,,,,,,,,,,,,,,,,,,,,,,,,,,,,,,sub-016,45.3,43.4,46.1,COM3,2024-02-06_16h34.29.008,2024_RDpaindiscrimination_maintask,2023.2.3,59.97702881855129,2024-02-06 16h34.51.762996 -0500,
1,0,1,0,9,0,9,0,,,,,,,,,,,,,1133.424649799941,,,,,,,,1133.4104965999722,1138.4081395999528,1138.4081470000092,1138.4246215999592,1150.4414396999637,1150.4085563999834,1,active,43.4,1150.4087043999461,1153.8115093000233,7.500000000000167,3.384,,,,,,,,,,,,,,,,,,,,,,,,,,,,,,,,,,,,,,sub-016,45.3,43.4,46.1,COM3,2024-02-06_16h34.29.008,2024_RDpaindiscrimination_maintask,2023.2.3,59.97702881855129,2024-02-06 16h34.51.762996 -0500,
1,0,1,0,10,0,10,0,,,,,,,,,,,,,1153.8248430000385,,,,,,,,1153.8121122999582,1158.8083610000322,1158.8083681999706,1158.8248617999488,1170.8416655999608,1170.8088080999441,2,inactive,45.3,1170.8089547000127,1174.1282985999715,57.49999999999997,3.301,,,,,,,,,,,,,,,,,,,,,,,,,,,,,,,,,,,,,,sub-016,45.3,43.4,46.1,COM3,2024-02-06_16h34.29.008,2024_RDpaindiscrimination_maintask,2023.2.3,59.97702881855129,2024-02-06 16h34.51.762996 -0500,
1,0,1,0,11,0,11,0,,,,,,,,,,,,,1174.1417992999777,,,,,,,,1174.129108299967,1179.1252592999954,1179.1252661000472,1179.1417577000102,1191.1585783000337,1191.1257096000481,3,active,43.4,1191.125854599988,1195.6103521999903,26.50000000000005,4.465,,,,,,,,,,,,,,,,,,,,,,,,,,,,,,,,,,,,,,sub-016,45.3,43.4,46.1,COM3,2024-02-06_16h34.29.008,2024_RDpaindiscrimination_maintask,2023.2.3,59.97702881855129,2024-02-06 16h34.51.762996 -0500,
1,0,1,0,12,0,12,0,,,,,,,,,,,,,1195.625376299955,,,,,,,,1195.611109499936,1200.6090236000018,1200.6090307999402,1200.6254581999965,1212.6422543999506,1212.6093751000008,0,inactive,45.3,1212.6095251999795,1216.0600491999649,53.499999999999886,3.432,,,,,,,,,,,,,,,,,,,,,,,,,,,,,,,,,,,,,,sub-016,45.3,43.4,46.1,COM3,2024-02-06_16h34.29.008,2024_RDpaindiscrimination_maintask,2023.2.3,59.97702881855129,2024-02-06 16h34.51.762996 -0500,
1,0,1,0,13,0,13,0,,,,,,,,,,,,,1216.0755185999442,,,,,,,,1216.0603143000044,1221.0591107000364,1221.059117399971,1221.0756311999867,1233.0923927000258,1233.0595688000321,1,inactive,45.3,1233.0597134999698,1237.0440708999522,37.00000000000004,3.966,,,,,,,,,,,,,,,,,,,,,,,,,,,,,,,,,,,,,,sub-016,45.3,43.4,46.1,COM3,2024-02-06_16h34.29.008,2024_RDpaindiscrimination_maintask,2023.2.3,59.97702881855129,2024-02-06 16h34.51.762996 -0500,
1,0,1,0,14,0,14,0,,,,,,,,,,,,,1237.0591956999851,,,,,,,,1237.044873900013,1242.0427693999372,1242.0427764999913,1242.0592197000515,1254.0760693999473,1254.0431983999442,2,active,43.4,1254.0433460000204,1256.829375899979,17.500000000000068,2.767,,,,,,,,,,,,,,,,,,,,,,,,,,,,,,,,,,,,,,sub-016,45.3,43.4,46.1,COM3,2024-02-06_16h34.29.008,2024_RDpaindiscrimination_maintask,2023.2.3,59.97702881855129,2024-02-06 16h34.51.762996 -0500,
1,0,1,0,15,0,15,0,,,,,,,,,,,,,1256.842749799951,,,,,,,,1256.8301839999622,1261.8263292999472,1261.8263361999998,1261.8427395999897,1273.859614499961,1273.8267733999528,3,active,43.4,1273.8269205000252,1278.0789317999734,11.5000000000001,4.233,,,,,,,,,,,,,,,,,,,,,,,,,,,,,,,,,,,,,,sub-016,45.3,43.4,46.1,COM3,2024-02-06_16h34.29.008,2024_RDpaindiscrimination_maintask,2023.2.3,59.97702881855129,2024-02-06 16h34.51.762996 -0500,
1,0,1,0,,,,,0,0,0,0,0,0,0,0,,,,,1285.1429624999873,,,,,,1283.143755899975,1285.1265646000393,,,,,,,0,active,45.3,1302.1268419999396,1305.130044999998,31.999999999999957,2.985,1278.0795051000314,1278.0930092999479,1283.1434403000167,1285.1268563000485,1290.1265051000519,1290.1265125999926,1290.1430192999542,1302.159814100014,1302.1268333999906,,,,,,,,,,,,,,,,,,,,,,,,,,,,,sub-016,45.3,43.4,46.1,COM3,2024-02-06_16h34.29.008,2024_RDpaindiscrimination_maintask,2023.2.3,59.97702881855129,2024-02-06 16h34.51.762996 -0500,
1,0,1,0,,,,,0,0,0,0,1,0,1,0,,,,,1305.1433122999733,,,,,,,,,,,,,,1,inactive,45.3,1322.1271950999508,1324.929257199983,33.49999999999996,2.783,,,,1305.130848199944,1310.1268542000325,1310.126866800012,1310.1433714999584,1322.1600528999697,1322.127187200007,,,,,,,,,,,,,,,,,,,,,,,,,,,,,sub-016,45.3,43.4,46.1,COM3,2024-02-06_16h34.29.008,2024_RDpaindiscrimination_maintask,2023.2.3,59.97702881855129,2024-02-06 16h34.51.762996 -0500,
1,0,1,0,,,,,0,0,0,0,,,,,0,0,0,0,1327.6267781000352,,,,,,,,,,,,,,2,inactive,,,,,,,,,,,,,,,1324.9298101000022,1327.6104172000196,1327.6107498999918,1332.6103633999592,1332.610371000017,1332.6268626999808,1340.6102872999618,1340.6102872999618,1343.5769967000233,1343.610327900038,1343.610327900038,1343.5938813999528,4.04,4.76,404,476,8,1.2,0.75,pic-present,1,m,0.29761420004069805,None,,,,,sub-016,45.3,43.4,46.1,COM3,2024-02-06_16h34.29.008,2024_RDpaindiscrimination_maintask,2023.2.3,59.97702881855129,2024-02-06 16h34.51.762996 -0500,
1,0,1,0,,,,,0,0,0,0,,,,,1,0,1,0,1343.610327900038,,,,,,,,,,,,,,3,inactive,,,,,,,,,,,,,,,,,1343.5943926000036,1348.593877700041,1348.5938853999833,1348.6103740000399,1356.5937969000079,1356.5937969000079,1359.5604937999742,1359.5938413999975,1359.5938413999975,1359.577393100015,3.58,5.22,358,522,8,1.2,0.75,pic-absent,1,m,0.4018875000765547,None,,,,,sub-016,45.3,43.4,46.1,COM3,2024-02-06_16h34.29.008,2024_RDpaindiscrimination_maintask,2023.2.3,59.97702881855129,2024-02-06 16h34.51.762996 -0500,
1,0,1,0,,,,,0,0,0,0,,,,,2,0,2,0,1359.5938413999975,,,,,,,,,,,,,,0,active,,,,,,,,,,,,,,,,,1359.5778467999771,1364.5773988999426,1364.5774081000127,1364.5938622000394,1372.5772868000204,1372.5772868000204,1375.5440277999733,1375.5773580999812,1375.5773580999812,1375.5609127000207,3.78,5.02,378,501,8,1.2,0.75,pic-present,1,m,0.2667399999918416,None,,,,,sub-016,45.3,43.4,46.1,COM3,2024-02-06_16h34.29.008,2024_RDpaindiscrimination_maintask,2023.2.3,59.97702881855129,2024-02-06 16h34.51.762996 -0500,
1,0,1,0,,,,,0,0,0,0,,,,,3,0,3,0,1375.5773580999812,,,,,,,,,,,,,,1,inactive,,,,,,,,,,,,,,,,,1375.5613736000378,1380.5609009000473,1380.5609088999918,1380.5774102000287,1388.5608417999465,1388.5608417999465,1391.5274987999583,1391.560832099989,1391.560832099989,1391.544352500001,4.64,4.16,463,416,8,1.2,0.75,pic-absent,0,n,0.8867103999946266,None,,,,,sub-016,45.3,43.4,46.1,COM3,2024-02-06_16h34.29.008,2024_RDpaindiscrimination_maintask,2023.2.3,59.97702881855129,2024-02-06 16h34.51.762996 -0500,
1,0,1,0,,,,,1,0,1,0,0,0,0,0,,,,,1393.7443165000295,,,,,,1391.544858600013,1393.7281266000355,,,,,,,2,inactive,45.3,1410.7282504000468,1414.7634640999604,46.499999999999986,4.016,,,,1393.7284832999576,1398.7277904000366,1398.7277985999826,1398.7442518000025,1410.761091799941,1410.7282415999798,,,,,,,,,,,,,,,,,,,,,,,,,,,,,sub-016,45.3,43.4,46.1,COM3,2024-02-06_16h34.29.008,2024_RDpaindiscrimination_maintask,2023.2.3,59.97702881855129,2024-02-06 16h34.51.762996 -0500,
1,0,1,0,,,,,1,0,1,0,1,0,1,0,,,,,1414.7778628999367,,,,,,,,,,,,,,3,active,45.3,1431.7616481999867,1435.8307400000049,57.99999999999994,4.05,,,,1414.763720100047,1419.7613136,1419.7613208999392,1419.7778735000174,1431.7946266999934,1431.7616400000406,,,,,,,,,,,,,,,,,,,,,,,,,,,,,sub-016,45.3,43.4,46.1,COM3,2024-02-06_16h34.29.008,2024_RDpaindiscrimination_maintask,2023.2.3,59.97702881855129,2024-02-06 16h34.51.762996 -0500,
1,0,1,0,,,,,1,0,1,0,,,,,0,0,0,0,1438.7613623000216,,,,,,,,,,,,,,0,active,,,,,,,,,,,,,,,1435.831278800033,1438.744974900037,1438.7452888999833,1443.7449294000398,1443.7449368999805,1443.7614250000333,1451.7448550999397,1451.7448550999397,1454.7115683000302,1454.7448916999856,1454.7448916999856,1454.7284296000144,4.16,4.64,416,463,8,1.2,0.75,pic-absent,0,n,0.3394304000539705,None,,,,,sub-016,45.3,43.4,46.1,COM3,2024-02-06_16h34.29.008,2024_RDpaindiscrimination_maintask,2023.2.3,59.97702881855129,2024-02-06 16h34.51.762996 -0500,
1,0,1,0,,,,,1,0,1,0,,,,,1,0,1,0,1454.7448916999856,,,,,,,,,,,,,,1,active,,,,,,,,,,,,,,,,,1454.728966500028,1459.7284918000223,1459.7284997999668,1459.744935899973,1467.7283661999973,1467.7283661999973,1470.6950656999834,1470.7284022000385,1470.7284022000385,1470.7119337000186,3.69,5.11,369,511,8,1.2,0.75,pic-present,1,m,0.347120999940671,None,,,,,sub-016,45.3,43.4,46.1,COM3,2024-02-06_16h34.29.008,2024_RDpaindiscrimination_maintask,2023.2.3,59.97702881855129,2024-02-06 16h34.51.762996 -0500,
1,0,1,0,,,,,1,0,1,0,,,,,2,0,2,0,1470.7284022000385,,,,,,,,,,,,,,2,inactive,,,,,,,,,,,,,,,,,1470.71238859999,1475.7120035999687,1475.7120112000266,1475.7284576999955,1483.711888300022,1483.711888300022,1486.678581199958,1486.7119498000247,1486.7119498000247,1486.6954470999772,4.09,4.71,409,471,8,1.2,0.75,pic-absent,1,m,0.545328599982895,None,,,,,sub-016,45.3,43.4,46.1,COM3,2024-02-06_16h34.29.008,2024_RDpaindiscrimination_maintask,2023.2.3,59.97702881855129,2024-02-06 16h34.51.762996 -0500,
1,0,1,0,,,,,1,0,1,0,,,,,3,0,3,0,1486.7119498000247,,,,,,,,,,,,,,3,active,,,,,,,,,,,,,,,,,1486.6959483999526,1491.6954750999575,1491.6954835000215,1491.7119683000492,1499.6954041999998,1499.6954041999998,1502.6620948000345,1502.695428899955,1502.695428899955,1502.6789733000332,4.46,4.34,446,434,8,1.2,0.75,pic-present,1,m,0.2729524999158457,None,,,,,sub-016,45.3,43.4,46.1,COM3,2024-02-06_16h34.29.008,2024_RDpaindiscrimination_maintask,2023.2.3,59.97702881855129,2024-02-06 16h34.51.762996 -0500,
1,0,1,0,,,,,2,0,2,0,0,0,0,0,,,,,1504.7287882999517,,,,,,1502.6794776000315,1504.7124974000035,,,,,,,0,active,45.3,1521.7127117000055,1524.9489126999397,30.000000000000142,3.218,,,,1504.7127837999724,1509.7123962000478,1509.7124033999862,1509.7288518999703,1521.7456815999467,1521.7127028999384,,,,,,,,,,,,,,,,,,,,,,,,,,,,,sub-016,45.3,43.4,46.1,COM3,2024-02-06_16h34.29.008,2024_RDpaindiscrimination_maintask,2023.2.3,59.97702881855129,2024-02-06 16h34.51.762996 -0500,
1,0,1,0,,,,,2,0,2,0,1,0,1,0,,,,,1524.962422600016,,,,,,,,,,,,,,1,inactive,45.3,1541.9462521999376,1546.0484290999593,28.500000000000114,4.084,,,,1524.949684799998,1529.9459471999435,1529.9459547000006,1529.9624439999461,1541.9792439000448,1541.9462443999946,,,,,,,,,,,,,,,,,,,,,,,,,,,,,sub-016,45.3,43.4,46.1,COM3,2024-02-06_16h34.29.008,2024_RDpaindiscrimination_maintask,2023.2.3,59.97702881855129,2024-02-06 16h34.51.762996 -0500,
1,0,1,0,,,,,2,0,2,0,,,,,0,0,0,0,1548.7293207000475,,,,,,,,,,,,,,2,inactive,,,,,,,,,,,,,,,1546.0489343999652,1548.7129767000442,1548.713278900017,1553.7128834000323,1553.7128911999753,1553.7293778000167,1561.7128114999505,1561.7128114999505,1564.6794977999525,1564.7128045000136,1564.7128045000136,1564.6963505999884,4.27,4.53,426,453,8,1.2,0.75,pic-absent,1,m,1.7745948999654502,None,,,,,sub-016,45.3,43.4,46.1,COM3,2024-02-06_16h34.29.008,2024_RDpaindiscrimination_maintask,2023.2.3,59.97702881855129,2024-02-06 16h34.51.762996 -0500,
1,0,1,0,,,,,2,0,2,0,,,,,1,0,1,0,1564.7128045000136,,,,,,,,,,,,,,3,inactive,,,,,,,,,,,,,,,,,1564.6968728000065,1569.6963884000434,1569.6963970999932,1569.7128836000338,1577.696311900043,1577.696311900043,1580.6630104000214,1580.696348699974,1580.696348699974,1580.679910399951,4.12,4.68,412,468,8,1.2,0.75,pic-present,1,m,0.28502089995890856,None,,,,,sub-016,45.3,43.4,46.1,COM3,2024-02-06_16h34.29.008,2024_RDpaindiscrimination_maintask,2023.2.3,59.97702881855129,2024-02-06 16h34.51.762996 -0500,
1,0,1,0,,,,,2,0,2,0,,,,,2,0,2,0,1580.696348699974,,,,,,,,,,,,,,0,active,,,,,,,,,,,,,,,,,1580.6803726999788,1585.679894699948,1585.679903500015,1585.696426999988,1593.6798319000518,1593.6798319000518,1596.646530500031,1596.679900499992,1596.679900499992,1596.6633743999992,3.41,5.39,341,539,8,1.2,0.75,pic-absent,0,n,0.3851356999948621,None,,,,,sub-016,45.3,43.4,46.1,COM3,2024-02-06_16h34.29.008,2024_RDpaindiscrimination_maintask,2023.2.3,59.97702881855129,2024-02-06 16h34.51.762996 -0500,
1,0,1,0,,,,,2,0,2,0,,,,,3,0,3,0,1596.679900499992,,,,,,,,,,,,,,1,inactive,,,,,,,,,,,,,,,,,1596.6638664000202,1601.6634366000071,1601.6634440999478,1601.6799246999435,1609.663334700046,1609.663334700046,1612.6300404999638,1612.6633657000493,1612.6633657000493,1612.646898200037,4.31,4.49,430,449,8,1.2,0.75,pic-present,1,m,0.5808264999650419,None,,,,,sub-016,45.3,43.4,46.1,COM3,2024-02-06_16h34.29.008,2024_RDpaindiscrimination_maintask,2023.2.3,59.97702881855129,2024-02-06 16h34.51.762996 -0500,
1,0,1,0,,,,,3,0,3,0,0,0,0,0,,,,,1615.530123100034,,,,,,1612.6473716000328,1615.5136798999738,,,,,,,2,inactive,45.3,1632.5139862999786,1636.1333556999452,39.000000000000114,3.6,,,,1615.513993700035,1620.5136287000496,1620.5136360999895,1620.530143699958,1632.5469058000017,1632.513977500028,,,,,,,,,,,,,,,,,,,,,,,,,,,,,sub-016,45.3,43.4,46.1,COM3,2024-02-06_16h34.29.008,2024_RDpaindiscrimination_maintask,2023.2.3,59.97702881855129,2024-02-06 16h34.51.762996 -0500,
1,0,1,0,,,,,3,0,3,0,1,0,1,0,,,,,1636.1469816999743,,,,,,,,,,,,,,3,active,45.3,1653.1309470999986,1655.6000170999905,17.500000000000032,2.45,,,,1636.1340679000132,1641.1305088000372,1641.130516299978,1641.1470121999737,1653.1638409999432,1653.130937500042,,,,,,,,,,,,,,,,,,,,,,,,,,,,,sub-016,45.3,43.4,46.1,COM3,2024-02-06_16h34.29.008,2024_RDpaindiscrimination_maintask,2023.2.3,59.97702881855129,2024-02-06 16h34.51.762996 -0500,
1,0,1,0,,,,,3,0,3,0,,,,,0,0,0,0,1657.2805586999748,,,,,,,,,,,,,,0,active,,,,,,,,,,,,,,,1655.6005650999723,1657.2641205999535,1657.2644567999523,1662.2640694000293,1662.2640767999692,1662.2806156999432,1670.2640382000245,1670.2640382000245,1673.2307234000182,1673.2640382000245,1673.2640382000245,1673.2475484999595,3.46,5.34,346,534,8,1.2,0.75,pic-present,1,m,0.4595207000384107,None,,,,,sub-016,45.3,43.4,46.1,COM3,2024-02-06_16h34.29.008,2024_RDpaindiscrimination_maintask,2023.2.3,59.97702881855129,2024-02-06 16h34.51.762996 -0500,
1,0,1,0,,,,,3,0,3,0,,,,,1,0,1,0,1673.2640382000245,,,,,,,,,,,,,,1,active,,,,,,,,,,,,,,,,,1673.2481283999514,1678.2476638000226,1678.2476716999663,1678.2640918999678,1686.2475653999718,1686.2475653999718,1689.214215300046,1689.2475547000067,1689.2475547000067,1689.231042200001,4.65,4.15,465,415,8,1.2,0.75,pic-absent,None,None,,,,,,,sub-016,45.3,43.4,46.1,COM3,2024-02-06_16h34.29.008,2024_RDpaindiscrimination_maintask,2023.2.3,59.97702881855129,2024-02-06 16h34.51.762996 -0500,
1,0,1,0,,,,,3,0,3,0,,,,,2,0,2,0,1689.2475547000067,,,,,,,,,,,,,,2,inactive,,,,,,,,,,,,,,,,,1689.231507999939,1694.2311061000219,1694.2311142999679,1694.2476101999637,1702.2310639000498,1702.2310639000498,1705.1978518000105,1705.2311888999538,1705.2311888999538,1705.2146977999946,4.38,4.42,438,442,8,1.2,0.75,pic-present,1,m,0.37308120005764067,None,,,,,sub-016,45.3,43.4,46.1,COM3,2024-02-06_16h34.29.008,2024_RDpaindiscrimination_maintask,2023.2.3,59.97702881855129,2024-02-06 16h34.51.762996 -0500,
1,0,1,0,,,,,3,0,3,0,,,,,3,0,3,0,1705.2311888999538,,,,,,,,,,,,,,3,active,,,,,,,,,,,,,,,,,1705.215175600024,1710.2146129000466,1710.2146208999911,1710.2311488999985,1718.2145418999717,1718.2145418999717,1721.1812403999502,1721.214584399946,1721.214584399946,1721.1980926999822,4.39,4.41,438,441,8,1.2,0.75,pic-absent,0,n,0.4290500999195501,None,,,,,sub-016,45.3,43.4,46.1,COM3,2024-02-06_16h34.29.008,2024_RDpaindiscrimination_maintask,2023.2.3,59.97702881855129,2024-02-06 16h34.51.762996 -0500,
,,,,,,,,,,,,,,,,,,,,,,,,,,,,,,,,,,,,,,,,,,,,,,,,,,,,,,,,,,,,,,,,,,,,,,,,,,1721.198525600019,1726.1815886000404,1726.1816077999538,1736.181597399991,,,,,,,,,,,
