series.thisRepN,series.thisTrialN,series.thisN,series.thisIndex,Ramp.thisRepN,Ramp.thisTrialN,Ramp.thisN,Ramp.thisIndex,trials.thisRepN,trials.thisTrialN,trials.thisN,trials.thisIndex,thisRow.t,notes,Welcome.started,Welcome.stopped,instructions2.started,instructions2.stopped,instructions_start_ramp.started,instructions_start_ramp.stopped,confirm_continue.started,key_resp_8.started,confirm_continue.stopped,intensity,wait1_dur,wait.started,wait.stopped,therm_trig.started,therm_trig.stopped,rating_scale.started,rating_scale.stopped,rating,ratingScale.response,ratingScale.rt,press_when_ready.started,text_2.started,key_resp_3.started,press_when_ready.stopped,key_resp_3.keys,key_resp_3.rt,key_resp_3.duration,bloc_terminé.started,bloc_terminé.stopped,compile_ramps.started,compile_ramps.stopped,deuxieme_start.started,deuxieme_start.stopped,press_when_ready2.started,text_9.started,press_when_ready2.stopped,wait_2.started,wait_2.stopped,therm_trig2.started,therm_trig2.stopped,rating_scale2.started,rating_scale2.stopped,keyResp_2.keys,therm_value,ratingScale_2.response,ratingScale_2.rt,thank_you_output_code.started,thank_you_output_code.stopped,participant,com_thermode,nramps,date,expName,psychopyVersion,frameRate,expStart,
0,0,0,0,0,0,0,0,,,,,513.4011558997445,,0.011723499745130539,512.0681735998951,512.0681841000915,513.001544599887,513.0019360999577,513.3848055000417,513.3851064997725,513.4011558997445,513.9681496997364,41,2.4,513.9683352001011,516.3680384997278,516.3680471996777,528.3684670999646,528.3684741999023,538.904758699704,50.0,50.0,10.513,538.9050313998014,538.918144499883,538.918144499883,559.2853438998573,y,20.35947829997167,None,,,,,,,,,,,,,,,,,,,,,,sub-034,COM3,3,2024-04-29_09h18.35.984,2024_RDpaindiscrimination_calibration,2023.2.3,60.05602029077241,2024-04-29 09h34.24.857356 -0400,
0,0,0,0,1,0,1,0,,,,,559.3017422999255,,,,,,,,559.2856362997554,559.3017422999255,559.6854011998512,42,2.2,559.6855318997987,561.8853043001145,561.885313199833,573.8856386998668,573.8856464000419,579.92452650005,24.999999999999982,24.999999999999982,6.021,579.9249911000952,579.9353924999014,579.9353924999014,584.9690048000775,y,5.018612800166011,None,,,,,,,,,,,,,,,,,,,,,,sub-034,COM3,3,2024-04-29_09h18.35.984,2024_RDpaindiscrimination_calibration,2023.2.3,60.05602029077241,2024-04-29 09h34.24.857356 -0400,
0,0,0,0,2,0,2,0,,,,,584.9853874999098,,,,,,,,584.9692386998795,584.9853874999098,585.7523389998823,43,2.3,585.7524699000642,588.0522600999102,588.0522688999772,600.0526534998789,600.0526609998196,608.1396886999719,31.499999999999968,31.499999999999968,8.069,608.1401180997491,608.152419900056,608.152419900056,611.5694944998249,y,3.4056625002995133,None,,,,,,,,,,,,,,,,,,,,,,sub-034,COM3,3,2024-04-29_09h18.35.984,2024_RDpaindiscrimination_calibration,2023.2.3,60.05602029077241,2024-04-29 09h34.24.857356 -0400,
0,0,0,0,3,0,3,0,,,,,611.5857291999273,,,,,,,,611.5697240997106,611.5857291999273,613.1527714999393,44,2.2,613.1528893997893,615.3525755000301,615.3525843000971,627.3526934999973,627.3526987996884,634.0739241000265,62.49999999999986,62.49999999999986,6.703,634.0744154998101,634.085998899769,634.085998899769,637.969677799847,y,3.876525199972093,None,,,,,,,,,,,,,,,,,,,,,,sub-034,COM3,3,2024-04-29_09h18.35.984,2024_RDpaindiscrimination_calibration,2023.2.3,60.05602029077241,2024-04-29 09h34.24.857356 -0400,
0,0,0,0,4,0,4,0,,,,,637.9860300999135,,,,,,,,637.9698843997903,637.9860300999135,639.9530795998871,45,2.1,639.9532170998864,642.0529151000082,642.0529236998409,654.0530026000924,654.053008500021,658.3402704996988,74.99999999999989,74.99999999999989,4.269,658.3407439999282,658.35295030009,658.35295030009,662.4532694998197,y,4.093580800108612,None,,,,,,,,,,,,,,,,,,,,,,sub-034,COM3,3,2024-04-29_09h18.35.984,2024_RDpaindiscrimination_calibration,2023.2.3,60.05602029077241,2024-04-29 09h34.24.857356 -0400,
0,0,0,0,5,0,5,0,,,,,662.4696782999672,,,,,,,,662.4535074997693,662.4696782999672,664.1532970997505,46,2.1,664.1534146997146,666.2532266997732,666.2532350998372,678.2533247000538,678.2533303000964,686.0746323997155,89.49999999999991,89.49999999999991,7.803,686.0750506999902,686.0867638001218,686.0867638001218,689.6704269996844,y,3.5796250998973846,None,,,,,,,,,,,,,,,,,,,,,,sub-034,COM3,3,2024-04-29_09h18.35.984,2024_RDpaindiscrimination_calibration,2023.2.3,60.05602029077241,2024-04-29 09h34.24.857356 -0400,
0,0,0,0,6,0,6,0,,,,,689.6868088999763,,,,,,,,689.6706292997114,689.6868088999763,691.3537753997371,47,2.0,691.3538945000619,693.3536886000074,693.3536975998431,705.3537153997459,705.3537209997885,708.9084676001221,92.00000000000017,92.00000000000017,3.537,708.9088852000423,708.9205121998675,708.9205121998675,713.2041374999098,y,4.281808299943805,None,,,,,,,,,,,,,,,,,,,,,,sub-034,COM3,3,2024-04-29_09h18.35.984,2024_RDpaindiscrimination_calibration,2023.2.3,60.05602029077241,2024-04-29 09h34.24.857356 -0400,
0,0,0,0,7,0,7,0,,,,,713.2204410997219,,,,,,,,713.2043632999994,713.2204410997219,715.0207468997687,48,2.1,715.0208684997633,717.1206609997898,717.1206692997366,729.1210996997543,729.121106499806,734.2585527999327,98.50000000000006,98.50000000000006,5.119,734.2589731998742,734.2707801000215,734.2707801000215,739.37103929976,y,5.087380399927497,None,,,,,,,,,,,,,,,,,,,,,,sub-034,COM3,3,2024-04-29_09h18.35.984,2024_RDpaindiscrimination_calibration,2023.2.3,60.05602029077241,2024-04-29 09h34.24.857356 -0400,
0,0,0,0,8,0,8,0,,,,,739.3874514997005,,,,,,,,739.3712746999227,739.3874514997005,740.9377474999055,49,2.0,740.9378716000356,742.9376735999249,742.9376821997575,754.9380592000671,754.9380659000017,759.0929155997001,100.0,100.0,4.137,759.0932490997948,759.1043404997326,759.1043404997326,762.1046657999977,n,2.993698799982667,None,,,,,,,,,,,,,,,,,,,,,,sub-034,COM3,3,2024-04-29_09h18.35.984,2024_RDpaindiscrimination_calibration,2023.2.3,60.05602029077241,2024-04-29 09h34.24.857356 -0400,
0,0,0,0,,,,,,,,,,,,,,,,,,,,,,,,,,,,,,,,,,,,,,762.1048636999913,766.1045927000232,,,,,,,,,,,,,,,,,,,,sub-034,COM3,3,2024-04-29_09h18.35.984,2024_RDpaindiscrimination_calibration,2023.2.3,60.05602029077241,2024-04-29 09h34.24.857356 -0400,
1,0,1,0,0,0,0,0,,,,,768.0211080997251,,,,,,766.1047136997804,768.0047999997623,768.0051485998556,768.0211080997251,768.8214138997719,41,2.4,768.8215908999555,771.2213206999004,771.2213292000815,783.2217437000945,783.2217505997978,787.592641999945,2.5000000000001292,2.5000000000001292,4.353,787.5931692998856,787.6046988000162,787.6046988000162,790.6549805998802,y,3.033473600167781,None,,,,,,,,,,,,,,,,,,,,,,sub-034,COM3,3,2024-04-29_09h18.35.984,2024_RDpaindiscrimination_calibration,2023.2.3,60.05602029077241,2024-04-29 09h34.24.857356 -0400,
1,0,1,0,1,0,1,0,,,,,790.671406999696,,,,,,,,790.6552650998347,790.671406999696,791.8217095998116,42,2.3,791.8218311998062,794.1216155998409,794.1216242997907,806.1220380999148,806.1220474997535,812.9928617998958,1.5000000000000675,1.5000000000000675,6.853,812.9933601999655,813.0050321999006,813.0050321999006,815.5554478997365,y,2.5495430999435484,None,,,,,,,,,,,,,,,,,,,,,,sub-034,COM3,3,2024-04-29_09h18.35.984,2024_RDpaindiscrimination_calibration,2023.2.3,60.05602029077241,2024-04-29 09h34.24.857356 -0400,
1,0,1,0,2,0,2,0,,,,,815.5717275999486,,,,,,,,815.5556914997287,815.5717275999486,816.2553660999984,43,2.1,816.2554903998971,818.3553335997276,818.3553414996713,830.3557290998287,830.3557358998805,836.477308599744,9.500000000000169,9.500000000000169,6.103,836.4777997001074,836.4885773998685,836.4885773998685,838.8223594999872,y,2.3333870000205934,None,,,,,,,,,,,,,,,,,,,,,,sub-034,COM3,3,2024-04-29_09h18.35.984,2024_RDpaindiscrimination_calibration,2023.2.3,60.05602029077241,2024-04-29 09h34.24.857356 -0400,
1,0,1,0,3,0,3,0,,,,,838.8386168996803,,,,,,,,838.8225743998773,838.8386168996803,840.1388789000921,44,2.5,840.1390148000792,842.638841799926,842.6388499001041,854.6392111000605,854.6392181999981,860.0104000000283,9.500000000000204,9.500000000000204,5.305,860.0108798998408,860.0222889999859,860.0222889999859,862.5058989999816,y,2.472190300002694,None,,,,,,,,,,,,,,,,,,,,,,sub-034,COM3,3,2024-04-29_09h18.35.984,2024_RDpaindiscrimination_calibration,2023.2.3,60.05602029077241,2024-04-29 09h34.24.857356 -0400,
1,0,1,0,4,0,4,0,,,,,862.5222502998076,,,,,,,,862.5061042997986,862.5222502998076,863.1225713999011,45,2.3,863.1226925998926,865.4224733998999,865.4224820998497,877.4228399996646,877.4228475000709,880.9778705998324,20.000000000000107,20.000000000000107,3.537,880.9780109999701,880.989148600027,880.989148600027,883.7227988997474,y,2.7171628000214696,None,,,,,,,,,,,,,,,,,,,,,,sub-034,COM3,3,2024-04-29_09h18.35.984,2024_RDpaindiscrimination_calibration,2023.2.3,60.05602029077241,2024-04-29 09h34.24.857356 -0400,
1,0,1,0,5,0,5,0,,,,,883.7391852997243,,,,,,,,883.7230079998262,883.7391852997243,884.4061195999384,46,2.0,884.4062512996607,886.4061686000787,886.4061765000224,898.4064690996893,898.4064771998674,903.4266526997089,37.50000000000008,37.50000000000008,5.002,903.4271070999093,903.439517499879,903.439517499879,906.7397590996698,y,3.2868547001853585,None,,,,,,,,,,,,,,,,,,,,,,sub-034,COM3,3,2024-04-29_09h18.35.984,2024_RDpaindiscrimination_calibration,2023.2.3,60.05602029077241,2024-04-29 09h34.24.857356 -0400,
1,0,1,0,6,0,6,0,,,,,906.7561826999299,,,,,,,,906.7399669000879,906.7561826999299,907.3398044998758,47,2.5,907.3399402997456,909.8397337999195,909.8397424998693,921.8401458999142,921.840153099969,925.6447598999366,47.499999999999915,47.499999999999915,3.787,925.6452081999741,925.656432100106,925.656432100106,928.6901492998004,y,3.0174867999739945,None,,,,,,,,,,,,,,,,,,,,,,sub-034,COM3,3,2024-04-29_09h18.35.984,2024_RDpaindiscrimination_calibration,2023.2.3,60.05602029077241,2024-04-29 09h34.24.857356 -0400,
1,0,1,0,7,0,7,0,,,,,928.7064658999443,,,,,,,,928.69039350003,928.7064658999443,929.2067629001103,48,2.4,929.2068880000152,931.6067723999731,931.606780400034,943.6070567998104,943.6070640999824,949.195525099989,100.0,100.0,5.571,949.1960179000162,949.2067460999824,949.2067460999824,951.990445099771,n,2.7796507999300957,None,,,,,,,,,,,,,,,,,,,,,,sub-034,COM3,3,2024-04-29_09h18.35.984,2024_RDpaindiscrimination_calibration,2023.2.3,60.05602029077241,2024-04-29 09h34.24.857356 -0400,
1,0,1,0,,,,,,,,,,,,,,,,,,,,,,,,,,,,,,,,,,,,,,951.9906210000627,955.9902987000532,,,,,,,,,,,,,,,,,,,,sub-034,COM3,3,2024-04-29_09h18.35.984,2024_RDpaindiscrimination_calibration,2023.2.3,60.05602029077241,2024-04-29 09h34.24.857356 -0400,
2,0,2,0,0,0,0,0,,,,,957.9068692997098,,,,,,955.9904168997891,957.8904482997023,957.8908064998686,957.9068692997098,958.2571498998441,41,2.2,958.2573162997141,960.4570768000558,960.4570852997713,972.4574883999303,972.4574951999821,977.2277442999184,2.5000000000002003,2.5000000000002003,4.752,977.2282555997372,977.2404237999581,977.2404237999581,979.8407402997836,y,2.5896271001547575,None,,,,,,,,,,,,,,,,,,,,,,sub-034,COM3,3,2024-04-29_09h18.35.984,2024_RDpaindiscrimination_calibration,2023.2.3,60.05602029077241,2024-04-29 09h34.24.857356 -0400,
2,0,2,0,1,0,1,0,,,,,979.8571282001212,,,,,,,,979.841040099971,979.8571282001212,980.4075354998931,42,2.4,980.4076690999791,982.8073597997427,982.8073682999238,994.8077865997329,994.8077936000191,999.4783318997361,7.000000000000068,7.000000000000068,4.652,999.4788001999259,999.4907464999706,999.4907464999706,1002.3744393000379,y,2.8721217000856996,None,,,,,,,,,,,,,,,,,,,,,,sub-034,COM3,3,2024-04-29_09h18.35.984,2024_RDpaindiscrimination_calibration,2023.2.3,60.05602029077241,2024-04-29 09h34.24.857356 -0400,
2,0,2,0,2,0,2,0,,,,,1002.3907837998122,,,,,,,,1002.3746793000028,1002.3907837998122,1002.9743975000456,43,2.2,1002.9745164997876,1005.1743033998646,1005.1743121999316,1017.1743637998588,1017.1743695000187,1021.678442100063,14.000000000000137,14.000000000000137,4.485,1021.6789309000596,1021.6910465001129,1021.6910465001129,1023.991332499776,y,2.283571599982679,None,,,,,,,,,,,,,,,,,,,,,,sub-034,COM3,3,2024-04-29_09h18.35.984,2024_RDpaindiscrimination_calibration,2023.2.3,60.05602029077241,2024-04-29 09h34.24.857356 -0400,
2,0,2,0,3,0,3,0,,,,,1024.0077998996712,,,,,,,,1023.991541299969,1024.0077998996712,1025.074674599804,44,2.5,1025.0747911999933,1027.5746678998694,1027.5746758999303,1039.5750672998838,1039.5750742000528,1043.664342700038,23.000000000000096,23.000000000000096,4.071,1043.6648379000835,1043.6746879997663,1043.6746879997663,1046.291630699765,y,2.6037188000045717,None,,,,,,,,,,,,,,,,,,,,,,sub-034,COM3,3,2024-04-29_09h18.35.984,2024_RDpaindiscrimination_calibration,2023.2.3,60.05602029077241,2024-04-29 09h34.24.857356 -0400,
2,0,2,0,4,0,4,0,,,,,1046.308038899675,,,,,,,,1046.2918624999002,1046.308038899675,1047.2416723999195,45,2.3,1047.2418049001135,1049.5415757996961,1049.5415845001116,1061.5419609998353,1061.5419680001214,1066.379156100098,44.499999999999915,44.499999999999915,4.819,1066.3796363999136,1066.3915562001057,1066.3915562001057,1069.2085266998038,y,2.8105387003161013,None,,,,,,,,,,,,,,,,,,,,,,sub-034,COM3,3,2024-04-29_09h18.35.984,2024_RDpaindiscrimination_calibration,2023.2.3,60.05602029077241,2024-04-29 09h34.24.857356 -0400,
2,0,2,0,5,0,5,0,,,,,1069.224932400044,,,,,,,,1069.2087677996606,1069.224932400044,1069.7918787999079,46,2.2,1069.7920121997595,1071.9918061997741,1071.9918148000725,1083.9918569996953,1083.991862999741,1088.229128499981,47.50000000000008,47.50000000000008,4.219,1088.229565399699,1088.2418868998066,1088.2418868998066,1091.4255555998534,y,3.1727013997733593,None,,,,,,,,,,,,,,,,,,,,,,sub-034,COM3,3,2024-04-29_09h18.35.984,2024_RDpaindiscrimination_calibration,2023.2.3,60.05602029077241,2024-04-29 09h34.24.857356 -0400,
2,0,2,0,6,0,6,0,,,,,1091.4418851998635,,,,,,,,1091.4257700997405,1091.4418851998635,1092.092239299789,47,2.0,1092.0923746000044,1094.092168400064,1094.0921772997826,1106.0925431000069,1106.0925496998243,1109.9305043998174,55.99999999999991,55.99999999999991,3.82,1109.9309896999039,1109.9420957998373,1109.9420957998373,1113.1757575999945,y,3.2177164000459015,None,,,,,,,,,,,,,,,,,,,,,,sub-034,COM3,3,2024-04-29_09h18.35.984,2024_RDpaindiscrimination_calibration,2023.2.3,60.05602029077241,2024-04-29 09h34.24.857356 -0400,
2,0,2,0,7,0,7,0,,,,,1113.1921314997599,,,,,,,,1113.1759894997813,1113.1921314997599,1113.7591408998705,48,2.0,1113.7592750000767,1115.759026200045,1115.7590346997604,1127.7594067999162,1127.7594138998538,1131.5964537998661,91.50000000000017,91.50000000000017,3.819,1131.5968784000725,1131.609037199989,1131.609037199989,1134.7093903999776,y,3.0891165998764336,None,,,,,,,,,,,,,,,,,,,,,,sub-034,COM3,3,2024-04-29_09h18.35.984,2024_RDpaindiscrimination_calibration,2023.2.3,60.05602029077241,2024-04-29 09h34.24.857356 -0400,
2,0,2,0,8,0,8,0,,,,,1134.7257320997305,,,,,,,,1134.7096345997415,1134.7257320997305,1135.3260339996777,49,2.2,1135.3261621999554,1137.5259739998728,1137.5259822998196,1149.5263566998765,1149.5263638999313,1154.714520599693,100.0,100.0,5.17,1154.7150436998345,1154.726043399889,1154.726043399889,1158.4596647000872,n,3.7199834999628365,None,,,,,,,,,,,,,,,,,,,,,,sub-034,COM3,3,2024-04-29_09h18.35.984,2024_RDpaindiscrimination_calibration,2023.2.3,60.05602029077241,2024-04-29 09h34.24.857356 -0400,
2,0,2,0,,,,,,,,,,,,,,,,,,,,,,,,,,,,,,,,,,,,,,1158.4598449999467,1162.4596214997582,,,,,,,,,,,,,,,,,,,,sub-034,COM3,3,2024-04-29_09h18.35.984,2024_RDpaindiscrimination_calibration,2023.2.3,60.05602029077241,2024-04-29 09h34.24.857356 -0400,
,,,,,,,,0,0,0,0,1196.4432439999655,,,,,,,,,,,,2.0,,,,,,,30.0,,,,,,,,,,,,1162.459647399839,1167.476227299776,1167.4762332998216,1196.4268948999234,1196.4272594000213,1196.4432439999655,1198.4602621998638,1198.460271500051,1200.4601332996972,1200.4601429998875,1212.4604903999716,1212.4604988000356,1213.9983473997563,None,44.1,30.0,1.521,,,sub-034,COM3,3,2024-04-29_09h18.35.984,2024_RDpaindiscrimination_calibration,2023.2.3,60.05602029077241,2024-04-29 09h34.24.857356 -0400,
,,,,,,,,1,0,1,0,1214.010234599933,,,,,,,,,,,,2.4,,,,,,,20.00000000000007,,,,,,,,,,,,,,,,1213.99961599987,1214.010234599933,1216.4939443999901,1216.4939529998228,1218.8938833996654,1218.8938927999698,1230.8941289000213,1230.8941369000822,1236.280241199769,None,45.3,20.00000000000007,5.368,,,sub-034,COM3,3,2024-04-29_09h18.35.984,2024_RDpaindiscrimination_calibration,2023.2.3,60.05602029077241,2024-04-29 09h34.24.857356 -0400,
,,,,,,,,2,0,2,0,1236.293771599885,,,,,,,,,,,,2.1,,,,,,,3.0000000000000226,,,,,,,,,,,,,,,,1236.280685099773,1236.293771599885,1238.2274815998971,1238.2274905000813,1240.3273428999819,1240.3273517997004,1252.3273952999152,1252.3274014997296,1256.782111699693,None,42.2,3.0000000000000226,4.437,,,sub-034,COM3,3,2024-04-29_09h18.35.984,2024_RDpaindiscrimination_calibration,2023.2.3,60.05602029077241,2024-04-29 09h34.24.857356 -0400,
,,,,,,,,3,0,3,0,1256.7940671998076,,,,,,,,,,,,2.1,,,,,,,82.9999999999999,,,,,,,,,,,,,,,,1256.783101500012,1256.7940671998076,1258.5443998998962,1258.5444088000804,1260.6442861999385,1260.64429549966,1272.6443365998566,1272.6443424997851,1276.5829451996833,None,47.8,82.9999999999999,3.92,,,sub-034,COM3,3,2024-04-29_09h18.35.984,2024_RDpaindiscrimination_calibration,2023.2.3,60.05602029077241,2024-04-29 09h34.24.857356 -0400,
,,,,,,,,4,0,4,0,1276.5942759998143,,,,,,,,,,,,2.2,,,,,,,100.0,,,,,,,,,,,,,,,,1276.5839535999112,1276.5942759998143,1278.3946575000882,1278.394666600041,1280.5945667997003,1280.5945759997703,1292.5949499998242,1292.594957199879,1295.2657816000283,None,48.4,100.0,2.653,,,sub-034,COM3,3,2024-04-29_09h18.35.984,2024_RDpaindiscrimination_calibration,2023.2.3,60.05602029077241,2024-04-29 09h34.24.857356 -0400,
,,,,,,,,5,0,5,0,1295.2778997998685,,,,,,,,,,,,2.2,,,,,,,18.5,,,,,,,,,,,,,,,,1295.2668290999718,1295.2778997998685,1297.2615147996694,1297.2615235000849,1299.4613985000178,1299.4614065997303,1311.4617655999027,1311.4617727999575,1314.3828485999256,None,45.9,18.5,2.903,,,sub-034,COM3,3,2024-04-29_09h18.35.984,2024_RDpaindiscrimination_calibration,2023.2.3,60.05602029077241,2024-04-29 09h34.24.857356 -0400,
,,,,,,,,6,0,6,0,1314.394732200075,,,,,,,,,,,,2.4,,,,,,,27.500000000000078,,,,,,,,,,,,,,,,1314.3838327997364,1314.394732200075,1317.2286426001228,1317.2286521000788,1319.6283984999172,1319.6284075998701,1331.6286629997194,1331.6286706998944,1335.531356899999,None,46.5,27.500000000000078,3.884,,,sub-034,COM3,3,2024-04-29_09h18.35.984,2024_RDpaindiscrimination_calibration,2023.2.3,60.05602029077241,2024-04-29 09h34.24.857356 -0400,
,,,,,,,,7,0,7,0,1335.5451393998228,,,,,,,,,,,,2.2,,,,,,,18.000000000000007,,,,,,,,,,,,,,,,1335.5316415000707,1335.5451393998228,1337.7622110000812,1337.7622198997997,1339.962066899985,1339.96207709983,1351.9622935000807,1351.962301099673,1355.3168211998418,None,44.7,18.000000000000007,3.336,,,sub-034,COM3,3,2024-04-29_09h18.35.984,2024_RDpaindiscrimination_calibration,2023.2.3,60.05602029077241,2024-04-29 09h34.24.857356 -0400,
,,,,,,,,8,0,8,0,1355.328683800064,,,,,,,,,,,,2.4,,,,,,,8.000000000000131,,,,,,,,,,,,,,,,1355.3178139999509,1355.328683800064,1357.0289642997086,1357.0289730997756,1359.428852299694,1359.4288610001095,1371.4292303998955,1371.4292375999503,1376.651120999828,None,43.5,8.000000000000131,5.204,,,sub-034,COM3,3,2024-04-29_09h18.35.984,2024_RDpaindiscrimination_calibration,2023.2.3,60.05602029077241,2024-04-29 09h34.24.857356 -0400,
,,,,,,,,9,0,9,0,1376.6622250997461,,,,,,,,,,,,2.1,,,,,,,0.0,,,,,,,,,,,,,,,,1376.6520577999763,1376.6622250997461,1378.5625394000672,1378.5625481996685,1380.6623916998506,1380.6624002996832,1392.6624488998204,1392.6624551001005,1398.5494073000737,None,41.0,0.0,5.869,,,sub-034,COM3,3,2024-04-29_09h18.35.984,2024_RDpaindiscrimination_calibration,2023.2.3,60.05602029077241,2024-04-29 09h34.24.857356 -0400,
,,,,,,,,10,0,10,0,1398.5625181999058,,,,,,,,,,,,2.4,,,,,,,100.0,,,,,,,,,,,,,,,,1398.5503473998979,1398.5625181999058,1400.279455000069,1400.2794637000188,1402.6794487000443,1402.6794577999972,1414.6797934998758,1414.6798009998165,1417.2992909001186,None,49.0,100.0,2.602,,,sub-034,COM3,3,2024-04-29_09h18.35.984,2024_RDpaindiscrimination_calibration,2023.2.3,60.05602029077241,2024-04-29 09h34.24.857356 -0400,
,,,,,,,,11,0,11,0,1417.3127631000243,,,,,,,,,,,,2.4,,,,,,,10.500000000000169,,,,,,,,,,,,,,,,1417.2996938000433,1417.3127631000243,1418.7798009999096,1418.7798100998625,1421.1796972998418,1421.1797082996927,1433.1801621001214,1433.180169499945,1438.533377399668,None,41.6,10.500000000000169,5.336,,,sub-034,COM3,3,2024-04-29_09h18.35.984,2024_RDpaindiscrimination_calibration,2023.2.3,60.05602029077241,2024-04-29 09h34.24.857356 -0400,
,,,,,,,,12,0,12,0,1438.5463556000032,,,,,,,,,,,,2.4,,,,,,,90.5,,,,,,,,,,,,,,,,1438.534306100104,1438.5463556000032,1440.1300510000437,1440.1300595998764,1442.529914099723,1442.529923199676,1454.5300261997618,1454.5300318999216,1458.283739999868,None,47.2,90.5,3.736,,,sub-034,COM3,3,2024-04-29_09h18.35.984,2024_RDpaindiscrimination_calibration,2023.2.3,60.05602029077241,2024-04-29 09h34.24.857356 -0400,
,,,,,,,,13,0,13,0,1458.296685199719,,,,,,,,,,,,2.5,,,,,,,13.000000000000028,,,,,,,,,,,,,,,,1458.2851329999976,1458.296685199719,1460.3302453998476,1460.3302547996864,1462.8302174001,1462.8302263999358,1474.8305722996593,1474.8305804999545,1478.9019042998552,None,42.8,13.000000000000028,4.054,,,sub-034,COM3,3,2024-04-29_09h18.35.984,2024_RDpaindiscrimination_calibration,2023.2.3,60.05602029077241,2024-04-29 09h34.24.857356 -0400,
,,,,,,,,,,,,,,,,,,,,,,,,,,,,,,,,,,,,,,,,,,,,,,,,,,,,,,,,,,,,1478.9026870997623,1483.913608300034,,,,,,,,,
