trials.thisRepN,trials.thisTrialN,trials.thisN,trials.thisIndex,loop_test.thisRepN,loop_test.thisTrialN,loop_test.thisN,loop_test.thisIndex,loop_eval_discri.thisRepN,loop_eval_discri.thisTrialN,loop_eval_discri.thisN,loop_eval_discri.thisIndex,loop_eval.thisRepN,loop_eval.thisTrialN,loop_eval.thisN,loop_eval.thisIndex,loop_discri.thisRepN,loop_discri.thisTrialN,loop_discri.thisN,loop_discri.thisIndex,thisRow.t,notes,Set_up.started,Set_up.stopped,electrode_check.started,electrode_check.stopped,instructions_eval.started,instructions_eval.stopped,pause_5_test.started,pause_5_test.stopped,Phase_Test.started,thermode_locali.started,Phase_Test.stopped,loca_thermode,condition,temp_trial_sent,eval_douleur.started,eval_douleur.stopped,ratingScale.response,ratingScale.rt,thermode_locali.stopped,Fin_test.started,text.started,Fin_test.stopped,pause_5_EVA.started,pause_5_EVA.stopped,tâche_EVA.started,thermode_locali_EVA.started,thermode_locali_EVA.stopped,tâche_EVA.stopped,instructions_discrim.started,instructions_discrim.stopped,pause_5_pic.started,pause_5_pic.stopped,tâche_PIC.started,thermode_locali_pic.started,percu_or.started,responser.started,thermode_locali_pic.stopped,percu_or.stopped,responser.stopped,tâche_PIC.stopped,dur_plateau1,dur_plateau2,dur_plateau1_sent,dur_plateau2_sent,start_plateau_2_resp,dur_pic,dur_rise,pic_presence,pic_response,discrimin_resp.keys,discrimin_resp.rt,discrimin_resp.duration,break_entre_bloc.started,break_entre_bloc.stopped,merci.started,merci.stopped,participant,temp_flat,temp_active,temp_pic_set,com_thermode,date,expName,psychopyVersion,frameRate,expStart,
0,0,0,0,0,0,0,0,,,,,,,,,,,,,123.16645020002034,,0.01518200000282377,119.06680440006312,119.06717350007966,120.88344050000887,120.88344910007436,123.13340789999347,123.13371229998302,128.14990980003495,128.1499159000814,128.16658530000132,140.15003530005924,0,inactive,45.9,140.1502755000256,143.435523900087,52.000000000000064,3.262,,,,,,,,,,,,,,,,,,,,,,,,,,,,,,,,,,,,,,,sub-012,45.9,44.3,46.4,COM3,2024-02-05_09h45.53.107,2024_RDpaindiscrimination_maintask,2023.2.3,60.00625264325103,2024-02-05 09h46.14.066600 -0500,
0,0,0,0,1,0,1,0,,,,,,,,,,,,,143.45003290008754,,,,,,,,143.43638610001653,148.43359000002965,148.4335969000822,148.4500570000382,160.43421229999512,1,active,44.3,160.4343644999899,165.16995850007515,27.500000000000053,4.716,160.46687730005942,,,,,,,,,,,,,,,,,,,,,,,,,,,,,,,,,,,,,,sub-012,45.9,44.3,46.4,COM3,2024-02-05_09h45.53.107,2024_RDpaindiscrimination_maintask,2023.2.3,60.00625264325103,2024-02-05 09h46.14.066600 -0500,
0,0,0,0,2,0,2,0,,,,,,,,,,,,,165.18366330000572,,,,,,,,165.17071840004064,170.16716379998252,170.16717020003125,170.18356100004166,182.16758030001074,2,inactive,45.9,182.1677354000276,185.38511720008682,54.499999999999915,3.198,182.20041520008817,,,,,,,,,,,,,,,,,,,,,,,,,,,,,,,,,,,,,,sub-012,45.9,44.3,46.4,COM3,2024-02-05_09h45.53.107,2024_RDpaindiscrimination_maintask,2023.2.3,60.00625264325103,2024-02-05 09h46.14.066600 -0500,
0,0,0,0,3,0,3,0,,,,,,,,,,,,,185.40041070000734,,,,,,,,185.385780600016,190.38403610000387,190.3840430000564,190.40044040000066,202.3844412000617,3,inactive,45.9,202.3845876000123,206.00251220003702,57.50000000000008,3.599,202.41733299999032,,,,,,,,,,,,,,,,,,,,,,,,,,,,,,,,,,,,,,sub-012,45.9,44.3,46.4,COM3,2024-02-05_09h45.53.107,2024_RDpaindiscrimination_maintask,2023.2.3,60.00625264325103,2024-02-05 09h46.14.066600 -0500,
0,0,0,0,4,0,4,0,,,,,,,,,,,,,206.01739280007314,,,,,,,,206.0034486000659,211.00092280004174,211.00092969997786,211.01736870000605,223.0013656000374,0,active,44.3,223.001506300061,225.92075460008346,14.500000000000004,2.9,223.0342220000457,,,,,,,,,,,,,,,,,,,,,,,,,,,,,,,,,,,,,,sub-012,45.9,44.3,46.4,COM3,2024-02-05_09h45.53.107,2024_RDpaindiscrimination_maintask,2023.2.3,60.00625264325103,2024-02-05 09h46.14.066600 -0500,
0,0,0,0,5,0,5,0,,,,,,,,,,,,,225.93412510002963,,,,,,,,225.921496200026,230.91779990005307,230.91780659998767,230.93424020009115,242.9182228000136,1,inactive,45.9,242.91836870007683,246.6532863000175,63.99999999999992,3.716,242.9510890999809,,,,,,,,,,,,,,,,,,,,,,,,,,,,,,,,,,,,,,sub-012,45.9,44.3,46.4,COM3,2024-02-05_09h45.53.107,2024_RDpaindiscrimination_maintask,2023.2.3,60.00625264325103,2024-02-05 09h46.14.066600 -0500,
0,0,0,0,6,0,6,0,,,,,,,,,,,,,246.6677980000386,,,,,,,,246.6542379000457,251.65143710002303,251.65144360007253,251.66779009997845,263.6517903000349,2,active,44.3,263.65193020005245,268.05479419999756,14.000000000000172,4.384,263.6846672000829,,,,,,,,,,,,,,,,,,,,,,,,,,,,,,,,,,,,,,sub-012,45.9,44.3,46.4,COM3,2024-02-05_09h45.53.107,2024_RDpaindiscrimination_maintask,2023.2.3,60.00625264325103,2024-02-05 09h46.14.066600 -0500,
0,0,0,0,7,0,7,0,,,,,,,,,,,,,268.06803299998865,,,,,,,,268.05560790002346,273.051598799997,273.05160570004955,273.0681104999967,285.05201910005417,3,active,44.3,285.05216140009,290.00410690007266,13.000000000000075,4.933,285.08489860000554,,,,,,,,,,,,,,,,,,,,,,,,,,,,,,,,,,,,,,sub-012,45.9,44.3,46.4,COM3,2024-02-05_09h45.53.107,2024_RDpaindiscrimination_maintask,2023.2.3,60.00625264325103,2024-02-05 09h46.14.066600 -0500,
0,0,0,0,8,0,8,0,,,,,,,,,,,,,290.0182788000675,,,,,,,,290.0049163000658,295.00179930008017,295.00180600001477,295.0182734000264,307.00223610003013,0,inactive,45.9,307.0023801000789,310.13855770009104,42.49999999999992,3.118,307.0350942000514,,,,,,,,,,,,,,,,,,,,,,,,,,,,,,,,,,,,,,sub-012,45.9,44.3,46.4,COM3,2024-02-05_09h45.53.107,2024_RDpaindiscrimination_maintask,2023.2.3,60.00625264325103,2024-02-05 09h46.14.066600 -0500,
0,0,0,0,9,0,9,0,,,,,,,,,,,,,310.15182130003814,,,,,,,,310.13934700004756,315.13538720004726,315.1353937999811,315.1518863000674,327.1358701999998,1,active,44.3,327.13601020001806,330.7035520999925,9.000000000000096,3.549,327.16867829998955,,,,,,,,,,,,,,,,,,,,,,,,,,,,,,,,,,,,,,sub-012,45.9,44.3,46.4,COM3,2024-02-05_09h45.53.107,2024_RDpaindiscrimination_maintask,2023.2.3,60.00625264325103,2024-02-05 09h46.14.066600 -0500,
0,0,0,0,10,0,10,0,,,,,,,,,,,,,330.7186410999857,,,,,,,,330.70377010002267,335.702213200042,335.7022199999774,335.718683800078,347.702693899977,2,inactive,45.9,347.7028358000098,350.4218739999924,47.4999999999999,2.7,347.73557430005167,,,,,,,,,,,,,,,,,,,,,,,,,,,,,,,,,,,,,,sub-012,45.9,44.3,46.4,COM3,2024-02-05_09h45.53.107,2024_RDpaindiscrimination_maintask,2023.2.3,60.00625264325103,2024-02-05 09h46.14.066600 -0500,
0,0,0,0,11,0,11,0,,,,,,,,,,,,,350.4354889000533,,,,,,,,350.4226051000878,355.41903380001895,355.41904030006845,355.4355469000293,367.4196184000466,3,active,44.3,367.419759200071,371.1887650000863,20.500000000000142,3.75,367.4524583000457,,,,,,,,,,,,,,,,,,,,,,,,,,,,,,,,,,,,,,sub-012,45.9,44.3,46.4,COM3,2024-02-05_09h45.53.107,2024_RDpaindiscrimination_maintask,2023.2.3,60.00625264325103,2024-02-05 09h46.14.066600 -0500,
0,0,0,0,12,0,12,0,,,,,,,,,,,,,371.25252239999827,,,,,,,,371.1895644000033,376.20260100008454,376.20260690001305,376.2192325000651,388.20266770001035,0,active,44.3,388.2028328999877,392.3888358999975,8.000000000000131,4.167,,,,,,,,,,,,,,,,,,,,,,,,,,,,,,,,,,,,,,,sub-012,45.9,44.3,46.4,COM3,2024-02-05_09h45.53.107,2024_RDpaindiscrimination_maintask,2023.2.3,60.00625264325103,2024-02-05 09h46.14.066600 -0500,
0,0,0,0,13,0,13,0,,,,,,,,,,,,,392.40261740004644,,,,,,,,392.38959130004514,397.3861762000015,397.38618280005176,397.4026353000663,409.38664280006196,1,inactive,45.9,409.3867854999844,411.60446679999586,51.49999999999999,2.199,409.4194794000359,,,,,,,,,,,,,,,,,,,,,,,,,,,,,,,,,,,,,,sub-012,45.9,44.3,46.4,COM3,2024-02-05_09h45.53.107,2024_RDpaindiscrimination_maintask,2023.2.3,60.00625264325103,2024-02-05 09h46.14.066600 -0500,
0,0,0,0,14,0,14,0,,,,,,,,,,,,,411.619509799988,,,,,,,,411.6053425000282,416.6030604999978,416.6030673000496,416.61957099998835,428.6034937000368,2,active,44.3,428.60363250004593,432.654884000076,9.500000000000062,4.032,428.63636860006955,,,,,,,,,,,,,,,,,,,,,,,,,,,,,,,,,,,,,,sub-012,45.9,44.3,46.4,COM3,2024-02-05_09h45.53.107,2024_RDpaindiscrimination_maintask,2023.2.3,60.00625264325103,2024-02-05 09h46.14.066600 -0500,
0,0,0,0,15,0,15,0,,,,,,,,,,,,,432.66977070004214,,,,,,,,432.655671000015,437.65330090001225,437.6533080000663,437.66979419998825,449.65373350004666,3,inactive,45.9,449.653876000084,452.4230757000623,58.49999999999997,2.75,449.686585700023,,,,,,,,,,,,,,,,,,,,,,,,,,,,,,,,,,,,,,sub-012,45.9,44.3,46.4,COM3,2024-02-05_09h45.53.107,2024_RDpaindiscrimination_maintask,2023.2.3,60.00625264325103,2024-02-05 09h46.14.066600 -0500,
0,0,0,0,,,,,0,0,0,0,0,0,0,0,,,,,489.120411699987,,,,,,486.77094399998896,489.104076800053,,,,,,0,active,45.9,506.1043545000721,508.53966080001555,31.999999999999964,2.416,,452.42365420004353,452.4366625000257,486.77062090008985,489.10437369998544,494.10392640007194,494.1039337000111,494.1204121999908,506.1372267000843,506.1043461000081,,,,,,,,,,,,,,,,,,,,,,,,,,,,,sub-012,45.9,44.3,46.4,COM3,2024-02-05_09h45.53.107,2024_RDpaindiscrimination_maintask,2023.2.3,60.00625264325103,2024-02-05 09h46.14.066600 -0500,
0,0,0,0,,,,,0,0,0,0,1,0,1,0,,,,,508.5539284000406,,,,,,,,,,,,,1,inactive,45.9,525.5380645000841,528.1893708000425,57.50000000000004,2.632,,,,,508.5403764999937,513.5375142000848,513.5375213000225,513.5540268000914,525.5708212000318,525.5380565000232,,,,,,,,,,,,,,,,,,,,,,,,,,,,,sub-012,45.9,44.3,46.4,COM3,2024-02-05_09h45.53.107,2024_RDpaindiscrimination_maintask,2023.2.3,60.00625264325103,2024-02-05 09h46.14.066600 -0500,
0,0,0,0,,,,,0,0,0,0,,,,,0,0,0,0,531.1208865999943,,,,,,,,,,,,,2,active,,,,,,,,,,,,,,,,528.1898553000065,531.1045415999833,531.1048363000154,536.1044463000726,536.1044540000148,536.120905800024,544.1043996000662,544.1043996000662,547.071078900015,547.1043663000455,547.1043663000455,547.0878837000346,3.81,4.99,381,499,8,1.2,0.75,pic-absent,0,n,2.277016800013371,None,,,,,sub-012,45.9,44.3,46.4,COM3,2024-02-05_09h45.53.107,2024_RDpaindiscrimination_maintask,2023.2.3,60.00625264325103,2024-02-05 09h46.14.066600 -0500,
0,0,0,0,,,,,0,0,0,0,,,,,1,0,1,0,547.1043663000455,,,,,,,,,,,,,3,inactive,,,,,,,,,,,,,,,,,,547.0886269999901,552.0879128000233,552.0879216000903,552.1043988000602,560.0878821000224,560.0878821000224,563.0546106999973,563.0879140000325,563.0879140000325,563.0714259999804,4.3,4.5,430,450,8,1.2,0.75,pic-present,1,m,1.109421500004828,None,,,,,sub-012,45.9,44.3,46.4,COM3,2024-02-05_09h45.53.107,2024_RDpaindiscrimination_maintask,2023.2.3,60.00625264325103,2024-02-05 09h46.14.066600 -0500,
0,0,0,0,,,,,0,0,0,0,,,,,2,0,2,0,563.0879140000325,,,,,,,,,,,,,0,active,,,,,,,,,,,,,,,,,,563.0719030000037,568.0714800000424,568.0714872999815,568.0879709000001,576.0714070000686,576.0714070000686,579.0381262000883,579.071450300049,579.071450300049,579.0549476000015,3.5,5.3,350,530,8,1.2,0.75,pic-absent,1,m,1.3545291000045836,None,,,,,sub-012,45.9,44.3,46.4,COM3,2024-02-05_09h45.53.107,2024_RDpaindiscrimination_maintask,2023.2.3,60.00625264325103,2024-02-05 09h46.14.066600 -0500,
0,0,0,0,,,,,0,0,0,0,,,,,3,0,3,0,579.071450300049,,,,,,,,,,,,,1,active,,,,,,,,,,,,,,,,,,579.0554182999767,584.0549894000869,584.0549965000246,584.0715418000473,592.0549891000846,592.0549891000846,595.0216198000126,595.0549584000837,595.0549584000837,595.0384649999905,3.93,4.87,393,487,8,1.2,0.75,pic-present,1,m,1.1750664999708533,None,,,,,sub-012,45.9,44.3,46.4,COM3,2024-02-05_09h45.53.107,2024_RDpaindiscrimination_maintask,2023.2.3,60.00625264325103,2024-02-05 09h46.14.066600 -0500,
0,0,0,0,,,,,1,0,1,0,0,0,0,0,,,,,607.3717580999946,,,,,,595.0389718000079,607.355513400049,,,,,,2,inactive,45.9,624.3556045000441,627.7089293000754,42.5000000000001,3.335,,,,,607.3558411999838,612.3552766999928,612.3552833000431,612.3718301000772,624.3885904999916,624.3555962999817,,,,,,,,,,,,,,,,,,,,,,,,,,,,,sub-012,45.9,44.3,46.4,COM3,2024-02-05_09h45.53.107,2024_RDpaindiscrimination_maintask,2023.2.3,60.00625264325103,2024-02-05 09h46.14.066600 -0500,
0,0,0,0,,,,,1,0,1,0,1,0,1,0,,,,,627.721963900025,,,,,,,,,,,,,3,active,45.9,644.7067284000805,647.4076453000307,30.0,2.682,,,,,627.7096624000696,632.7055909000337,632.7055971000809,632.7220662999898,644.7388512000907,644.7067196000135,,,,,,,,,,,,,,,,,,,,,,,,,,,,,sub-012,45.9,44.3,46.4,COM3,2024-02-05_09h45.53.107,2024_RDpaindiscrimination_maintask,2023.2.3,60.00625264325103,2024-02-05 09h46.14.066600 -0500,
0,0,0,0,,,,,1,0,1,0,,,,,0,0,0,0,650.3223071000539,,,,,,,,,,,,,0,inactive,,,,,,,,,,,,,,,,647.4081976000452,650.3058416000567,650.3061717000091,655.3057642000495,655.3057722999947,655.3222790000727,663.3056998000247,663.3056998000247,666.2724056000588,666.3057587000076,666.3057587000076,666.2892483000178,4.23,4.57,423,457,8,1.2,0.75,pic-absent,1,m,1.3042842999566346,None,,,,,sub-012,45.9,44.3,46.4,COM3,2024-02-05_09h45.53.107,2024_RDpaindiscrimination_maintask,2023.2.3,60.00625264325103,2024-02-05 09h46.14.066600 -0500,
0,0,0,0,,,,,1,0,1,0,,,,,1,0,1,0,666.3057587000076,,,,,,,,,,,,,1,active,,,,,,,,,,,,,,,,,,666.2897958999965,671.2894619000144,671.2894693000708,671.3059089999879,679.2893342000898,679.2893342000898,682.2560449000448,682.2893808999797,682.2893808999797,682.2729007999878,4.41,4.39,441,438,8,1.2,0.75,pic-absent,1,m,1.0330035999650136,None,,,,,sub-012,45.9,44.3,46.4,COM3,2024-02-05_09h45.53.107,2024_RDpaindiscrimination_maintask,2023.2.3,60.00625264325103,2024-02-05 09h46.14.066600 -0500,
0,0,0,0,,,,,1,0,1,0,,,,,2,0,2,0,682.2893808999797,,,,,,,,,,,,,2,inactive,,,,,,,,,,,,,,,,,,682.2734464000678,687.2729284000816,687.2729353000177,687.289426399977,695.272865600069,695.272865600069,698.239563900046,698.2728483000537,698.2728483000537,698.256433499977,3.31,5.49,331,549,8,1.2,0.75,pic-present,0,n,1.6531644000206143,None,,,,,sub-012,45.9,44.3,46.4,COM3,2024-02-05_09h45.53.107,2024_RDpaindiscrimination_maintask,2023.2.3,60.00625264325103,2024-02-05 09h46.14.066600 -0500,
0,0,0,0,,,,,1,0,1,0,,,,,3,0,3,0,698.2728483000537,,,,,,,,,,,,,3,active,,,,,,,,,,,,,,,,,,698.2569140000269,703.2564553000266,703.2564629000844,703.2729512000224,711.2563764000079,711.2563764000079,714.2230722000822,714.2564106000355,714.2564106000355,714.2399263000116,3.58,5.22,358,522,8,1.2,0.75,pic-absent,1,m,0.8168043999467045,None,,,,,sub-012,45.9,44.3,46.4,COM3,2024-02-05_09h45.53.107,2024_RDpaindiscrimination_maintask,2023.2.3,60.00625264325103,2024-02-05 09h46.14.066600 -0500,
0,0,0,0,,,,,2,0,2,0,0,0,0,0,,,,,717.256448600092,,,,,,714.2403984999983,717.2401435000356,,,,,,0,active,45.9,734.2404324000236,737.3090267999796,12.000000000000028,3.05,,,,,717.2404685000656,722.2400122000836,722.240019000019,722.2563922000118,734.2733113000868,734.2404241000768,,,,,,,,,,,,,,,,,,,,,,,,,,,,,sub-012,45.9,44.3,46.4,COM3,2024-02-05_09h45.53.107,2024_RDpaindiscrimination_maintask,2023.2.3,60.00625264325103,2024-02-05 09h46.14.066600 -0500,
0,0,0,0,,,,,2,0,2,0,1,0,1,0,,,,,737.3233481000643,,,,,,,,,,,,,1,inactive,45.9,754.307229100028,757.6920540999854,45.499999999999915,3.365,,,,,737.3097781999968,742.3068968000589,742.3069030999904,742.323289400083,754.3402234000387,754.3072213000851,,,,,,,,,,,,,,,,,,,,,,,,,,,,,sub-012,45.9,44.3,46.4,COM3,2024-02-05_09h45.53.107,2024_RDpaindiscrimination_maintask,2023.2.3,60.00625264325103,2024-02-05 09h46.14.066600 -0500,
0,0,0,0,,,,,2,0,2,0,,,,,0,0,0,0,761.0735317000654,,,,,,,,,,,,,2,inactive,,,,,,,,,,,,,,,,757.692230100045,761.0572016000515,761.0575100000715,766.0571735000703,766.0571809000103,766.0735880000284,774.0570899000159,774.0570899000159,777.0238031999907,777.0571376000298,777.0571376000298,777.0406444000546,3.51,5.29,351,529,8,1.2,0.75,pic-present,1,m,0.729254600009881,None,,,,,sub-012,45.9,44.3,46.4,COM3,2024-02-05_09h45.53.107,2024_RDpaindiscrimination_maintask,2023.2.3,60.00625264325103,2024-02-05 09h46.14.066600 -0500,
0,0,0,0,,,,,2,0,2,0,,,,,1,0,1,0,777.0571376000298,,,,,,,,,,,,,3,active,,,,,,,,,,,,,,,,,,777.0411852999823,782.040689000045,782.0406958999811,782.057191500091,790.0406140000559,790.0406140000559,793.0073247000109,793.040653700009,793.040653700009,793.0241602000315,3.73,5.07,373,507,8,1.2,0.75,pic-present,1,m,0.6454912000335753,None,,,,,sub-012,45.9,44.3,46.4,COM3,2024-02-05_09h45.53.107,2024_RDpaindiscrimination_maintask,2023.2.3,60.00625264325103,2024-02-05 09h46.14.066600 -0500,
0,0,0,0,,,,,2,0,2,0,,,,,2,0,2,0,793.040653700009,,,,,,,,,,,,,0,inactive,,,,,,,,,,,,,,,,,,793.0246117999777,798.0242045000196,798.0242120000767,798.0406188999768,806.0241282000206,806.0241282000206,808.9907902000705,809.0241729000118,809.0241729000118,809.007679900038,3.74,5.06,374,505,8,1.2,0.75,pic-absent,1,m,0.8425000999122858,None,,,,,sub-012,45.9,44.3,46.4,COM3,2024-02-05_09h45.53.107,2024_RDpaindiscrimination_maintask,2023.2.3,60.00625264325103,2024-02-05 09h46.14.066600 -0500,
0,0,0,0,,,,,2,0,2,0,,,,,3,0,3,0,809.0241729000118,,,,,,,,,,,,,1,inactive,,,,,,,,,,,,,,,,,,809.0081348000094,814.0076652000425,814.0076729999855,814.0241775000468,822.007567099994,822.007567099994,824.9742726000259,825.0076368000591,825.0076368000591,824.9911044000182,3.64,5.16,364,516,8,1.2,0.75,pic-absent,0,n,0.9459706000052392,None,,,,,sub-012,45.9,44.3,46.4,COM3,2024-02-05_09h45.53.107,2024_RDpaindiscrimination_maintask,2023.2.3,60.00625264325103,2024-02-05 09h46.14.066600 -0500,
0,0,0,0,,,,,3,0,3,0,0,0,0,0,,,,,828.7076697000302,,,,,,824.9915822000476,828.6914115999825,,,,,,2,inactive,45.9,845.6917233000277,847.8942251000553,40.0,2.183,,,,,828.6917067000177,833.6913814999862,833.6913885000395,833.7076464000857,845.7245268999832,845.6917144000763,,,,,,,,,,,,,,,,,,,,,,,,,,,,,sub-012,45.9,44.3,46.4,COM3,2024-02-05_09h45.53.107,2024_RDpaindiscrimination_maintask,2023.2.3,60.00625264325103,2024-02-05 09h46.14.066600 -0500,
0,0,0,0,,,,,3,0,3,0,1,0,1,0,,,,,847.9079046000261,,,,,,,,,,,,,3,active,45.9,864.8919169000583,867.8107641000533,21.000000000000032,2.9,,,,,847.8950441000052,852.8915251999861,852.8915334000485,852.9080078999978,864.9247451000847,864.8919087999966,,,,,,,,,,,,,,,,,,,,,,,,,,,,,sub-012,45.9,44.3,46.4,COM3,2024-02-05_09h45.53.107,2024_RDpaindiscrimination_maintask,2023.2.3,60.00625264325103,2024-02-05 09h46.14.066600 -0500,
0,0,0,0,,,,,3,0,3,0,,,,,0,0,0,0,870.824881699984,,,,,,,,,,,,,0,active,,,,,,,,,,,,,,,,867.8113613000605,870.8085603000363,870.808878300013,875.808305600076,875.8083133000182,875.8248164000688,883.8083706999896,883.8083706999896,886.7749996000202,886.8083165000426,886.8083165000426,886.7918256000848,3.86,4.94,386,494,8,1.2,0.75,pic-present,1,m,0.7775561000453308,None,,,,,sub-012,45.9,44.3,46.4,COM3,2024-02-05_09h45.53.107,2024_RDpaindiscrimination_maintask,2023.2.3,60.00625264325103,2024-02-05 09h46.14.066600 -0500,
0,0,0,0,,,,,3,0,3,0,,,,,1,0,1,0,886.8083165000426,,,,,,,,,,,,,1,inactive,,,,,,,,,,,,,,,,,,886.7923293000786,891.7918567000888,891.7918643000303,891.8083747000201,899.7917922000634,899.7917922000634,902.7584964000853,902.7918318000156,902.7918318000156,902.7754005000461,4.42,4.38,442,438,8,1.2,0.75,pic-absent,0,n,1.305593500030227,None,,,,,sub-012,45.9,44.3,46.4,COM3,2024-02-05_09h45.53.107,2024_RDpaindiscrimination_maintask,2023.2.3,60.00625264325103,2024-02-05 09h46.14.066600 -0500,
0,0,0,0,,,,,3,0,3,0,,,,,2,0,2,0,902.7918318000156,,,,,,,,,,,,,2,active,,,,,,,,,,,,,,,,,,902.7758529999992,907.7753746000817,907.7753818000201,907.7918860000791,915.7754056000849,915.7754056000849,918.7420146000804,918.7753750000848,918.7753750000848,918.7588612000691,3.57,5.23,357,523,8,1.2,0.75,pic-present,1,m,0.7497069999808446,None,,,,,sub-012,45.9,44.3,46.4,COM3,2024-02-05_09h45.53.107,2024_RDpaindiscrimination_maintask,2023.2.3,60.00625264325103,2024-02-05 09h46.14.066600 -0500,
0,0,0,0,,,,,3,0,3,0,,,,,3,0,3,0,918.7753750000848,,,,,,,,,,,,,3,inactive,,,,,,,,,,,,,,,,,,918.7593634000514,923.7588991000084,923.7589067000663,923.7754034000682,931.7588296000613,931.7588296000613,934.725533900084,934.7588260000339,934.7588260000339,934.7423803000711,4.24,4.56,424,455,8,1.2,0.75,pic-present,1,m,0.8027252000756562,None,,,,,sub-012,45.9,44.3,46.4,COM3,2024-02-05_09h45.53.107,2024_RDpaindiscrimination_maintask,2023.2.3,60.00625264325103,2024-02-05 09h46.14.066600 -0500,
1,0,1,0,0,0,0,0,,,,,,,,,,,,,1008.7430499000475,,,,1001.0266409000615,1004.493206000072,1004.4932128000073,1008.7266638000729,1008.726964200032,1013.7266150000505,1013.7266222999897,1013.7431151000783,1025.7270808999892,0,inactive,45.9,1025.7273098999867,1028.3279683000874,30.0,2.578,1025.7599737000419,,,,,,,,,,,,,,,,,,,,,,,,,,,,,,,,,,934.742820500047,1001.0265203000745,,,sub-012,45.9,44.3,46.4,COM3,2024-02-05_09h45.53.107,2024_RDpaindiscrimination_maintask,2023.2.3,60.00625264325103,2024-02-05 09h46.14.066600 -0500,
1,0,1,0,1,0,1,0,,,,,,,,,,,,,1028.3432816000422,,,,,,,,1028.3287890000502,1033.3268528000917,1033.3268594000256,1033.3433051999891,1045.3272866000189,1,active,44.3,1045.3274359999923,1049.1116905000526,7.000000000000131,3.766,1045.3601551000029,,,,,,,,,,,,,,,,,,,,,,,,,,,,,,,,,,,,,,sub-012,45.9,44.3,46.4,COM3,2024-02-05_09h45.53.107,2024_RDpaindiscrimination_maintask,2023.2.3,60.00625264325103,2024-02-05 09h46.14.066600 -0500,
1,0,1,0,2,0,2,0,,,,,,,,,,,,,1049.1268570000539,,,,,,,,1049.112442200072,1054.110466000042,1054.1104725000914,1054.1269147000276,1066.1108858999796,2,active,44.3,1066.1110286000185,1070.529925800045,10.000000000000098,4.4,1066.1437091000844,,,,,,,,,,,,,,,,,,,,,,,,,,,,,,,,,,,,,,sub-012,45.9,44.3,46.4,COM3,2024-02-05_09h45.53.107,2024_RDpaindiscrimination_maintask,2023.2.3,60.00625264325103,2024-02-05 09h46.14.066600 -0500,
1,0,1,0,3,0,3,0,,,,,,,,,,,,,1070.543773900019,,,,,,,,1070.5306574000278,1075.52737720008,1075.5273837000132,1075.543776400038,1087.5277446000837,3,inactive,45.9,1087.5278874000069,1091.3456934000133,46.00000000000012,3.799,1087.5605842000805,,,,,,,,,,,,,,,,,,,,,,,,,,,,,,,,,,,,,,sub-012,45.9,44.3,46.4,COM3,2024-02-05_09h45.53.107,2024_RDpaindiscrimination_maintask,2023.2.3,60.00625264325103,2024-02-05 09h46.14.066600 -0500,
1,0,1,0,4,0,4,0,,,,,,,,,,,,,1091.3606467000209,,,,,,,,1091.3459297000663,1096.3442844999954,1096.3442909000441,1096.3607318000868,1108.3448297000723,0,inactive,45.9,1108.3449817000655,1111.9140386000508,43.00000000000013,3.55,1108.3775356999831,,,,,,,,,,,,,,,,,,,,,,,,,,,,,,,,,,,,,,sub-012,45.9,44.3,46.4,COM3,2024-02-05_09h45.53.107,2024_RDpaindiscrimination_maintask,2023.2.3,60.00625264325103,2024-02-05 09h46.14.066600 -0500,
1,0,1,0,5,0,5,0,,,,,,,,,,,,,1111.9276258000173,,,,,,,,1111.9148264999967,1116.9111430000048,1116.9111498000566,1116.927645000047,1128.9116095000645,1,active,44.3,1128.9117542000022,1133.2965765000554,10.000000000000169,4.366,1128.944441300002,,,,,,,,,,,,,,,,,,,,,,,,,,,,,,,,,,,,,,sub-012,45.9,44.3,46.4,COM3,2024-02-05_09h45.53.107,2024_RDpaindiscrimination_maintask,2023.2.3,60.00625264325103,2024-02-05 09h46.14.066600 -0500,
1,0,1,0,6,0,6,0,,,,,,,,,,,,,1133.3111805000808,,,,,,,,1133.2973385000369,1138.2947242000373,1138.2947314000921,1138.3112205000361,1150.2952864000108,2,inactive,45.9,1150.2954261000268,1153.9628216000274,54.00000000000002,3.649,1150.3279961000662,,,,,,,,,,,,,,,,,,,,,,,,,,,,,,,,,,,,,,sub-012,45.9,44.3,46.4,COM3,2024-02-05_09h45.53.107,2024_RDpaindiscrimination_maintask,2023.2.3,60.00625264325103,2024-02-05 09h46.14.066600 -0500,
1,0,1,0,7,0,7,0,,,,,,,,,,,,,1153.978139200015,,,,,,,,1153.963566099992,1158.9616099999985,1158.9616171000525,1158.9780931000132,1170.9621161000105,3,inactive,45.9,1170.9622651999816,1173.7981141000055,48.49999999999997,2.817,1170.9948890000815,,,,,,,,,,,,,,,,,,,,,,,,,,,,,,,,,,,,,,sub-012,45.9,44.3,46.4,COM3,2024-02-05_09h45.53.107,2024_RDpaindiscrimination_maintask,2023.2.3,60.00625264325103,2024-02-05 09h46.14.066600 -0500,
1,0,1,0,8,0,8,0,,,,,,,,,,,,,1173.8116013000254,,,,,,,,1173.7988793000113,1178.7952033000765,1178.7952103000134,1178.8117826000089,1190.7956047999905,0,active,44.3,1190.795756699983,1193.762891600025,4.4999999999999964,2.948,1190.8284936000127,,,,,,,,,,,,,,,,,,,,,,,,,,,,,,,,,,,,,,sub-012,45.9,44.3,46.4,COM3,2024-02-05_09h45.53.107,2024_RDpaindiscrimination_maintask,2023.2.3,60.00625264325103,2024-02-05 09h46.14.066600 -0500,
1,0,1,0,9,0,9,0,,,,,,,,,,,,,1193.7785500000464,,,,,,,,1193.7633689000504,1198.7620807000203,1198.762088000076,1198.778628500062,1210.7624756000005,1,inactive,45.9,1210.7626333000371,1213.8484207000583,53.00000000000003,3.067,1210.7953750999877,,,,,,,,,,,,,,,,,,,,,,,,,,,,,,,,,,,,,,sub-012,45.9,44.3,46.4,COM3,2024-02-05_09h45.53.107,2024_RDpaindiscrimination_maintask,2023.2.3,60.00625264325103,2024-02-05 09h46.14.066600 -0500,
1,0,1,0,10,0,10,0,,,,,,,,,,,,,1213.8621545999777,,,,,,,,1213.849166000029,1218.8456535000587,1218.8456604999956,1218.8620992000215,1230.8461529000197,2,inactive,45.9,1230.8462976000737,1234.9474972999888,47.4999999999999,4.082,1230.8790159000782,,,,,,,,,,,,,,,,,,,,,,,,,,,,,,,,,,,,,,sub-012,45.9,44.3,46.4,COM3,2024-02-05_09h45.53.107,2024_RDpaindiscrimination_maintask,2023.2.3,60.00625264325103,2024-02-05 09h46.14.066600 -0500,
1,0,1,0,11,0,11,0,,,,,,,,,,,,,1234.9624178999802,,,,,,,,1234.9483015000587,1239.9460006000008,1239.9460075000534,1239.9624811999965,1251.9464153000154,3,active,44.3,1251.9465886000544,1257.7148247000296,5.499999999999999,5.749,1251.9792523999931,,,,,,,,,,,,,,,,,,,,,,,,,,,,,,,,,,,,,,sub-012,45.9,44.3,46.4,COM3,2024-02-05_09h45.53.107,2024_RDpaindiscrimination_maintask,2023.2.3,60.00625264325103,2024-02-05 09h46.14.066600 -0500,
1,0,1,0,12,0,12,0,,,,,,,,,,,,,1257.7293522000546,,,,,,,,1257.715598699986,1262.712914600037,1262.712923199986,1262.7293464000104,1274.713316300069,0,active,44.3,1274.713459599996,1278.7144251000136,18.000000000000036,3.983,1274.746235000086,,,,,,,,,,,,,,,,,,,,,,,,,,,,,,,,,,,,,,sub-012,45.9,44.3,46.4,COM3,2024-02-05_09h45.53.107,2024_RDpaindiscrimination_maintask,2023.2.3,60.00625264325103,2024-02-05 09h46.14.066600 -0500,
1,0,1,0,13,0,13,0,,,,,,,,,,,,,1278.7295955000445,,,,,,,,1278.7151952000568,1283.7131168000633,1283.7131233999971,1283.7296573000494,1295.7135838000104,1,inactive,45.9,1295.7137254000409,1300.4488738999935,39.999999999999936,4.717,1295.7464708000189,,,,,,,,,,,,,,,,,,,,,,,,,,,,,,,,,,,,,,sub-012,45.9,44.3,46.4,COM3,2024-02-05_09h45.53.107,2024_RDpaindiscrimination_maintask,2023.2.3,60.00625264325103,2024-02-05 09h46.14.066600 -0500,
1,0,1,0,14,0,14,0,,,,,,,,,,,,,1300.463071300066,,,,,,,,1300.4496512999758,1305.4466405999847,1305.4466469000326,1305.4631263000192,1317.447154900059,2,active,44.3,1317.4472957000835,1322.416501800064,6.500000000000201,4.949,1317.4799538999796,,,,,,,,,,,,,,,,,,,,,,,,,,,,,,,,,,,,,,sub-012,45.9,44.3,46.4,COM3,2024-02-05_09h45.53.107,2024_RDpaindiscrimination_maintask,2023.2.3,60.00625264325103,2024-02-05 09h46.14.066600 -0500,
1,0,1,0,15,0,15,0,,,,,,,,,,,,,1322.4302064999938,,,,,,,,1322.4172536000842,1327.4137075000908,1327.4137138000224,1327.4300654000835,1339.413979300065,3,active,44.3,1339.4141283000354,1343.616557499976,8.500000000000131,4.184,1339.446850300068,,,,,,,,,,,,,,,,,,,,,,,,,,,,,,,,,,,,,,sub-012,45.9,44.3,46.4,COM3,2024-02-05_09h45.53.107,2024_RDpaindiscrimination_maintask,2023.2.3,60.00625264325103,2024-02-05 09h46.14.066600 -0500,
1,0,1,0,,,,,0,0,0,0,0,0,0,0,,,,,1359.2971256000455,,,,,,1356.6143377000699,1359.2807296999963,,,,,,0,inactive,45.9,1376.281141799991,1379.733086100081,47.500000000000114,3.433,,1343.61715559999,1343.6303766000783,1356.6140235000057,1359.281025000033,1364.280661500059,1364.2806683999952,1364.297178799985,1376.3139782000799,1376.2811331000412,,,,,,,,,,,,,,,,,,,,,,,,,,,,,sub-012,45.9,44.3,46.4,COM3,2024-02-05_09h45.53.107,2024_RDpaindiscrimination_maintask,2023.2.3,60.00625264325103,2024-02-05 09h46.14.066600 -0500,
1,0,1,0,,,,,0,0,0,0,1,0,1,0,,,,,1379.7473875000142,,,,,,,,,,,,,1,active,45.9,1396.731344699976,1401.4162051000167,33.50000000000003,4.666,,,,,1379.7338886000216,1384.7309025999857,1384.7309093000367,1384.7474444999825,1396.764221600024,1396.7313368000323,,,,,,,,,,,,,,,,,,,,,,,,,,,,,sub-012,45.9,44.3,46.4,COM3,2024-02-05_09h45.53.107,2024_RDpaindiscrimination_maintask,2023.2.3,60.00625264325103,2024-02-05 09h46.14.066600 -0500,
1,0,1,0,,,,,0,0,0,0,,,,,0,0,0,0,1404.764324799995,,,,,,,,,,,,,2,inactive,,,,,,,,,,,,,,,,1401.4167619000655,1404.7479326000903,1404.748234000057,1409.7478716000915,1409.7478781000245,1409.7643385999836,1417.7477581000421,1417.7477581000421,1420.7145533000585,1420.7478338000365,1420.7478338000365,1420.731344500091,4.46,4.34,446,434,8,1.2,0.75,pic-present,1,m,1.285950900055468,None,,,,,sub-012,45.9,44.3,46.4,COM3,2024-02-05_09h45.53.107,2024_RDpaindiscrimination_maintask,2023.2.3,60.00625264325103,2024-02-05 09h46.14.066600 -0500,
1,0,1,0,,,,,0,0,0,0,,,,,1,0,1,0,1420.7478338000365,,,,,,,,,,,,,3,active,,,,,,,,,,,,,,,,,,1420.7318559000269,1425.7314220999833,1425.7314300000435,1425.7478525000624,1433.7313383000437,1433.7313383000437,1436.6980212000199,1436.731351400027,1436.731351400027,1436.7148591000587,3.93,4.87,393,487,8,1.2,0.75,pic-absent,1,m,1.7176448000827804,None,,,,,sub-012,45.9,44.3,46.4,COM3,2024-02-05_09h45.53.107,2024_RDpaindiscrimination_maintask,2023.2.3,60.00625264325103,2024-02-05 09h46.14.066600 -0500,
1,0,1,0,,,,,0,0,0,0,,,,,2,0,2,0,1436.731351400027,,,,,,,,,,,,,0,inactive,,,,,,,,,,,,,,,,,,1436.7153272000141,1441.714914900018,1441.7149218000704,1441.7314002000494,1449.714832100086,1449.714832100086,1452.6815311000682,1452.714865499991,1452.714865499991,1452.698384999996,4.5,4.3,450,430,8,1.2,0.75,pic-present,1,m,1.214396100025624,None,,,,,sub-012,45.9,44.3,46.4,COM3,2024-02-05_09h45.53.107,2024_RDpaindiscrimination_maintask,2023.2.3,60.00625264325103,2024-02-05 09h46.14.066600 -0500,
1,0,1,0,,,,,0,0,0,0,,,,,3,0,3,0,1452.714865499991,,,,,,,,,,,,,1,active,,,,,,,,,,,,,,,,,,1452.6989427000517,1457.698422800051,1457.6984420000808,1457.7149388000835,1465.6983135000337,1465.6983135000337,1468.6650185000617,1468.6983524999814,1468.6983524999814,1468.6818688000785,4.45,4.35,445,434,8,1.2,0.75,pic-absent,0,n,1.4551645999308676,None,,,,,sub-012,45.9,44.3,46.4,COM3,2024-02-05_09h45.53.107,2024_RDpaindiscrimination_maintask,2023.2.3,60.00625264325103,2024-02-05 09h46.14.066600 -0500,
1,0,1,0,,,,,1,0,1,0,0,0,0,0,,,,,1476.4817806000356,,,,,,1468.682368400041,1476.465384399984,,,,,,2,active,45.9,1493.465939900023,1496.7005639000563,19.50000000000007,3.216,,,,,1476.4656781000085,1481.4653245999943,1481.4653312000446,1481.48180040007,1493.498637199984,1493.465931200073,,,,,,,,,,,,,,,,,,,,,,,,,,,,,sub-012,45.9,44.3,46.4,COM3,2024-02-05_09h45.53.107,2024_RDpaindiscrimination_maintask,2023.2.3,60.00625264325103,2024-02-05 09h46.14.066600 -0500,
1,0,1,0,,,,,1,0,1,0,1,0,1,0,,,,,1496.715425100061,,,,,,,,,,,,,3,inactive,45.9,1513.699375300086,1517.0510384000372,38.99999999999994,3.332,,,,,1496.7013334999792,1501.6988971000537,1501.6989045999944,1501.7153876000084,1513.7322116000578,1513.6993669000221,,,,,,,,,,,,,,,,,,,,,,,,,,,,,sub-012,45.9,44.3,46.4,COM3,2024-02-05_09h45.53.107,2024_RDpaindiscrimination_maintask,2023.2.3,60.00625264325103,2024-02-05 09h46.14.066600 -0500,
1,0,1,0,,,,,1,0,1,0,,,,,0,0,0,0,1519.4489445000654,,,,,,,,,,,,,0,active,,,,,,,,,,,,,,,,1517.0512119000778,1519.4325719000772,1519.4329082000768,1524.4325181000168,1524.4325252000708,1524.4489679000108,1532.4324599000392,1532.4324599000392,1535.3992323999992,1535.4324946000706,1535.4324946000706,1535.4160124000628,3.74,5.06,374,505,8,1.2,0.75,pic-present,1,m,0.7733522999333218,None,,,,,sub-012,45.9,44.3,46.4,COM3,2024-02-05_09h45.53.107,2024_RDpaindiscrimination_maintask,2023.2.3,60.00625264325103,2024-02-05 09h46.14.066600 -0500,
1,0,1,0,,,,,1,0,1,0,,,,,1,0,1,0,1535.4324946000706,,,,,,,,,,,,,1,inactive,,,,,,,,,,,,,,,,,,1535.416540700011,1540.4160343999974,1540.416041700053,1540.4325450999895,1548.4159726999933,1548.4159726999933,1551.3826662000502,1551.4160155000864,1551.4160155000864,1551.399558300036,3.73,5.07,373,507,8,1.2,0.75,pic-absent,0,n,1.254407100030221,None,,,,,sub-012,45.9,44.3,46.4,COM3,2024-02-05_09h45.53.107,2024_RDpaindiscrimination_maintask,2023.2.3,60.00625264325103,2024-02-05 09h46.14.066600 -0500,
1,0,1,0,,,,,1,0,1,0,,,,,2,0,2,0,1551.4160155000864,,,,,,,,,,,,,2,inactive,,,,,,,,,,,,,,,,,,1551.4000114999944,1556.399559100042,1556.399566499982,1556.4160930999788,1564.399494400015,1564.399494400015,1567.366250500083,1567.3995303000556,1567.3995303000556,1567.3830560999922,3.34,5.46,334,546,8,1.2,0.75,pic-absent,1,m,0.9348749999189749,None,,,,,sub-012,45.9,44.3,46.4,COM3,2024-02-05_09h45.53.107,2024_RDpaindiscrimination_maintask,2023.2.3,60.00625264325103,2024-02-05 09h46.14.066600 -0500,
1,0,1,0,,,,,1,0,1,0,,,,,3,0,3,0,1567.3995303000556,,,,,,,,,,,,,3,active,,,,,,,,,,,,,,,,,,1567.3835485000163,1572.3830970000708,1572.383104700013,1572.3996298999991,1580.3831092000473,1580.3831092000473,1583.3497172000352,1583.3830644000554,1583.3830644000554,1583.3665604999987,4.08,4.72,408,472,8,1.2,0.75,pic-present,1,m,0.7538773000705987,None,,,,,sub-012,45.9,44.3,46.4,COM3,2024-02-05_09h45.53.107,2024_RDpaindiscrimination_maintask,2023.2.3,60.00625264325103,2024-02-05 09h46.14.066600 -0500,
1,0,1,0,,,,,2,0,2,0,0,0,0,0,,,,,1586.349756599986,,,,,,1583.3670849000337,1586.3333640000783,,,,,,0,inactive,45.9,1603.333650500048,1606.4352423000382,28.000000000000078,3.083,,,,,1586.3336478000274,1591.3333031000802,1591.3333095000125,1591.3498054000083,1603.366616000072,1603.333642499987,,,,,,,,,,,,,,,,,,,,,,,,,,,,,sub-012,45.9,44.3,46.4,COM3,2024-02-05_09h45.53.107,2024_RDpaindiscrimination_maintask,2023.2.3,60.00625264325103,2024-02-05 09h46.14.066600 -0500,
1,0,1,0,,,,,2,0,2,0,1,0,1,0,,,,,1606.4499641000293,,,,,,,,,,,,,1,active,45.9,1623.4340211000526,1626.45296340005,20.000000000000007,3.0,,,,,1606.4360221000388,1611.4335047000786,1611.433511500014,1611.450012300047,1623.466846400057,1623.4340131999925,,,,,,,,,,,,,,,,,,,,,,,,,,,,,sub-012,45.9,44.3,46.4,COM3,2024-02-05_09h45.53.107,2024_RDpaindiscrimination_maintask,2023.2.3,60.00625264325103,2024-02-05 09h46.14.066600 -0500,
1,0,1,0,,,,,2,0,2,0,,,,,0,0,0,0,1629.3669217000715,,,,,,,,,,,,,2,active,,,,,,,,,,,,,,,,1626.4535245000152,1629.3505391000072,1629.3508334000362,1634.3504749999847,1634.3504821000388,1634.3669821000658,1642.3504052000353,1642.3504052000353,1645.3171111000702,1645.3504384000553,1645.3504384000553,1645.3340006000362,4.71,4.09,471,409,8,1.2,0.75,pic-absent,1,m,1.2514471999602392,None,,,,,sub-012,45.9,44.3,46.4,COM3,2024-02-05_09h45.53.107,2024_RDpaindiscrimination_maintask,2023.2.3,60.00625264325103,2024-02-05 09h46.14.066600 -0500,
1,0,1,0,,,,,2,0,2,0,,,,,1,0,1,0,1645.3504384000553,,,,,,,,,,,,,3,inactive,,,,,,,,,,,,,,,,,,1645.3345283999806,1650.3339927999768,1650.334000300034,1650.3504924000008,1658.333930300083,1658.333930300083,1661.3006335999817,1661.3339252000442,1661.3339252000442,1661.3174617000623,3.72,5.08,372,508,8,1.2,0.75,pic-present,1,m,0.9759358000010252,None,,,,,sub-012,45.9,44.3,46.4,COM3,2024-02-05_09h45.53.107,2024_RDpaindiscrimination_maintask,2023.2.3,60.00625264325103,2024-02-05 09h46.14.066600 -0500,
1,0,1,0,,,,,2,0,2,0,,,,,2,0,2,0,1661.3339252000442,,,,,,,,,,,,,0,active,,,,,,,,,,,,,,,,,,1661.3179150000215,1666.317489100038,1666.317496899981,1666.334038100089,1674.3174085000064,1674.3174085000064,1677.2841634000652,1677.3174438000424,1677.3174438000424,1677.300958900014,4.14,4.66,413,466,8,1.2,0.75,pic-absent,0,n,1.4602533000288531,None,,,,,sub-012,45.9,44.3,46.4,COM3,2024-02-05_09h45.53.107,2024_RDpaindiscrimination_maintask,2023.2.3,60.00625264325103,2024-02-05 09h46.14.066600 -0500,
1,0,1,0,,,,,2,0,2,0,,,,,3,0,3,0,1677.3174438000424,,,,,,,,,,,,,1,inactive,,,,,,,,,,,,,,,,,,1677.3014214000432,1682.3010073000332,1682.3010154999793,1682.3174992999993,1690.300950200064,1690.300950200064,1693.2676314000273,1693.3009646000573,1693.3009646000573,1693.2845114000374,3.93,4.87,393,487,8,1.2,0.75,pic-present,1,m,1.139956400031224,None,,,,,sub-012,45.9,44.3,46.4,COM3,2024-02-05_09h45.53.107,2024_RDpaindiscrimination_maintask,2023.2.3,60.00625264325103,2024-02-05 09h46.14.066600 -0500,
1,0,1,0,,,,,3,0,3,0,0,0,0,0,,,,,1697.4843454000074,,,,,,1693.284988700063,1697.4679717000108,,,,,,2,active,45.9,1714.4682781000156,1718.5694042000687,10.000000000000169,4.082,,,,,1697.468306900002,1702.467943500029,1702.4679503000807,1702.4844038999872,1714.5012351999758,1714.4682696000673,,,,,,,,,,,,,,,,,,,,,,,,,,,,,sub-012,45.9,44.3,46.4,COM3,2024-02-05_09h45.53.107,2024_RDpaindiscrimination_maintask,2023.2.3,60.00625264325103,2024-02-05 09h46.14.066600 -0500,
1,0,1,0,,,,,3,0,3,0,1,0,1,0,,,,,1718.5846761000575,,,,,,,,,,,,,3,inactive,45.9,1735.5687062999932,1737.904633600032,40.0,2.317,,,,,1718.5701669000555,1723.5682718000608,1723.5682788999984,1723.5846699000103,1735.601579900016,1735.5686985000502,,,,,,,,,,,,,,,,,,,,,,,,,,,,,sub-012,45.9,44.3,46.4,COM3,2024-02-05_09h45.53.107,2024_RDpaindiscrimination_maintask,2023.2.3,60.00625264325103,2024-02-05 09h46.14.066600 -0500,
1,0,1,0,,,,,3,0,3,0,,,,,0,0,0,0,1741.4849812000757,,,,,,,,,,,,,0,inactive,,,,,,,,,,,,,,,,1737.9051509000128,1741.4686213000678,1741.4689289000817,1746.468570200028,1746.4685776000842,1746.484972300008,1754.4683718000306,1754.4683718000306,1757.435168200056,1757.46850190009,1757.46850190009,1757.452013400034,4.59,4.21,459,421,8,1.2,0.75,pic-absent,0,n,1.2407162999734282,None,,,,,sub-012,45.9,44.3,46.4,COM3,2024-02-05_09h45.53.107,2024_RDpaindiscrimination_maintask,2023.2.3,60.00625264325103,2024-02-05 09h46.14.066600 -0500,
1,0,1,0,,,,,3,0,3,0,,,,,1,0,1,0,1757.46850190009,,,,,,,,,,,,,1,active,,,,,,,,,,,,,,,,,,1757.4525416999822,1762.45205610001,1762.4520634000655,1762.468561500078,1770.452001400059,1770.452001400059,1773.4185648000566,1773.4518991999794,1773.4518991999794,1773.4354074000148,3.8,5.0,380,500,8,1.2,0.75,pic-present,1,m,1.0622507000807673,None,,,,,sub-012,45.9,44.3,46.4,COM3,2024-02-05_09h45.53.107,2024_RDpaindiscrimination_maintask,2023.2.3,60.00625264325103,2024-02-05 09h46.14.066600 -0500,
1,0,1,0,,,,,3,0,3,0,,,,,2,0,2,0,1773.4518991999794,,,,,,,,,,,,,2,active,,,,,,,,,,,,,,,,,,1773.4358615999809,1778.435514700017,1778.435522200074,1778.4519860000582,1786.4354126000544,1786.4354126000544,1789.402142200037,1789.4354537000181,1789.4354537000181,1789.4189692999935,3.41,5.39,341,539,8,1.2,0.75,pic-present,1,m,0.7900180000578985,None,,,,,sub-012,45.9,44.3,46.4,COM3,2024-02-05_09h45.53.107,2024_RDpaindiscrimination_maintask,2023.2.3,60.00625264325103,2024-02-05 09h46.14.066600 -0500,
1,0,1,0,,,,,3,0,3,0,,,,,3,0,3,0,1789.4354537000181,,,,,,,,,,,,,3,inactive,,,,,,,,,,,,,,,,,,1789.4194206000539,1794.419006900047,1794.4190144999884,1794.435504800058,1802.4189363000914,1802.4189363000914,1805.3856330000563,1805.418933100067,1805.418933100067,1805.4025372000178,3.81,4.99,381,499,8,1.2,0.75,pic-absent,0,n,1.6462685000151396,None,,,,,sub-012,45.9,44.3,46.4,COM3,2024-02-05_09h45.53.107,2024_RDpaindiscrimination_maintask,2023.2.3,60.00625264325103,2024-02-05 09h46.14.066600 -0500,
,,,,,,,,,,,,,,,,,,,,,,,,,,,,,,,,,,,,,,,,,,,,,,,,,,,,,,,,,,,,,,,,,,,,,,,,,,1805.402964000008,1809.9026493000565,1809.9026694999775,1819.9026206000708,,,,,,,,,,,
