trials.thisRepN,trials.thisTrialN,trials.thisN,trials.thisIndex,loop_test.thisRepN,loop_test.thisTrialN,loop_test.thisN,loop_test.thisIndex,loop_eval_discri.thisRepN,loop_eval_discri.thisTrialN,loop_eval_discri.thisN,loop_eval_discri.thisIndex,loop_eval.thisRepN,loop_eval.thisTrialN,loop_eval.thisN,loop_eval.thisIndex,loop_discri.thisRepN,loop_discri.thisTrialN,loop_discri.thisN,loop_discri.thisIndex,thisRow.t,notes,Set_up.started,Set_up.stopped,electrode_check.started,electrode_check.stopped,instructions_eval.started,instructions_eval.stopped,pause_5_test.started,pause_5_test.stopped,Phase_Test.started,thermode_locali.started,thermode_locali.stopped,Phase_Test.stopped,loca_thermode,condition,temp_trial_sent,eval_douleur.started,eval_douleur.stopped,ratingScale.response,ratingScale.rt,Fin_test.started,text.started,Fin_test.stopped,pause_5_EVA.started,pause_5_EVA.stopped,tâche_EVA.started,thermode_locali_EVA.started,thermode_locali_EVA.stopped,tâche_EVA.stopped,instructions_discrim.started,instructions_discrim.stopped,pause_5_pic.started,pause_5_pic.stopped,tâche_PIC.started,thermode_locali_pic.started,percu_or.started,responser.started,thermode_locali_pic.stopped,percu_or.stopped,responser.stopped,tâche_PIC.stopped,dur_plateau1,dur_plateau2,dur_plateau1_sent,dur_plateau2_sent,start_plateau_2_resp,dur_pic,dur_rise,pic_presence,pic_response,discrimin_resp.keys,discrimin_resp.rt,discrimin_resp.duration,break_entre_bloc.started,break_entre_bloc.stopped,merci.started,merci.stopped,participant,temp_flat,temp_active,temp_pic_set,com_thermode,date,expName,psychopyVersion,frameRate,expStart,
0,0,0,0,0,0,0,0,,,,,,,,,,,,,147.7733886000933,,0.005326000042259693,143.85708200000226,143.85749830002896,145.87375170004088,145.87376029998995,147.7571411000099,147.75743540003896,152.75704450008925,152.75705270003527,152.77339600003324,164.7902519000927,164.75743570004124,0,inactive,45.8,164.7576521000592,170.25930959999096,60.0,5.478,,,,,,,,,,,,,,,,,,,,,,,,,,,,,,,,,,,,,,sub-025,45.8,45.3,46.7,COM3,2024-02-19_11h27.19.547,2024_RDpaindiscrimination_maintask,2023.2.3,60.034856237362874,2024-02-19 11h27.41.004654 -0500,
0,0,0,0,1,0,1,0,,,,,,,,,,,,,170.2738114000531,,,,,,,,170.26020610006526,175.25726590002887,175.25727220007684,175.27379160001874,187.29051219997928,187.25765899999533,1,active,45.3,187.25780120003037,192.69253860006575,51.4999999999999,5.413,,,,,,,,,,,,,,,,,,,,,,,,,,,,,,,,,,,,,,sub-025,45.8,45.3,46.7,COM3,2024-02-19_11h27.19.547,2024_RDpaindiscrimination_maintask,2023.2.3,60.034856237362874,2024-02-19 11h27.41.004654 -0500,
0,0,0,0,2,0,2,0,,,,,,,,,,,,,192.70719420001842,,,,,,,,192.69331450003665,197.6907426000107,197.69074930006173,197.7071811000351,209.72398760006763,209.6912518000463,2,active,45.3,209.69139619998168,214.6775422000792,47.499999999999986,4.964,,,,,,,,,,,,,,,,,,,,,,,,,,,,,,,,,,,,,,sub-025,45.8,45.3,46.7,COM3,2024-02-19_11h27.19.547,2024_RDpaindiscrimination_maintask,2023.2.3,60.034856237362874,2024-02-19 11h27.41.004654 -0500,
0,0,0,0,3,0,3,0,,,,,,,,,,,,,214.6907962000696,,,,,,,,214.6783388000913,219.67434470006265,219.67435089999344,219.69074009999167,231.70762690005358,231.67480889998842,3,inactive,45.8,231.67495760007296,234.2106436000904,72.99999999999999,2.517,,,,,,,,,,,,,,,,,,,,,,,,,,,,,,,,,,,,,,sub-025,45.8,45.3,46.7,COM3,2024-02-19_11h27.19.547,2024_RDpaindiscrimination_maintask,2023.2.3,60.034856237362874,2024-02-19 11h27.41.004654 -0500,
0,0,0,0,4,0,4,0,,,,,,,,,,,,,234.22429620008916,,,,,,,,234.21142150007654,239.2078698000405,239.20787580008619,239.22435710008722,251.24116710003,251.2084059000481,0,inactive,45.8,251.20854989998043,254.64309710008092,72.49999999999991,3.416,,,,,,,,,,,,,,,,,,,,,,,,,,,,,,,,,,,,,,sub-025,45.8,45.3,46.7,COM3,2024-02-19_11h27.19.547,2024_RDpaindiscrimination_maintask,2023.2.3,60.034856237362874,2024-02-19 11h27.41.004654 -0500,
0,0,0,0,5,0,5,0,,,,,,,,,,,,,254.658014500048,,,,,,,,254.64385640004184,259.64140780002344,259.6414146000752,259.65791870001704,271.67470139998477,271.64180670003407,1,active,45.3,271.6419521000935,274.9763907000888,41.99999999999992,3.316,,,,,,,,,,,,,,,,,,,,,,,,,,,,,,,,,,,,,,sub-025,45.8,45.3,46.7,COM3,2024-02-19_11h27.19.547,2024_RDpaindiscrimination_maintask,2023.2.3,60.034856237362874,2024-02-19 11h27.41.004654 -0500,
0,0,0,0,6,0,6,0,,,,,,,,,,,,,274.99140140006784,,,,,,,,274.9771998000797,279.974942300003,279.9749488000525,279.99144800007343,292.0082340000663,291.9753520999802,2,active,45.3,291.97549410001375,296.14405770006124,35.99999999999998,4.15,,,,,,,,,,,,,,,,,,,,,,,,,,,,,,,,,,,,,,sub-025,45.8,45.3,46.7,COM3,2024-02-19_11h27.19.547,2024_RDpaindiscrimination_maintask,2023.2.3,60.034856237362874,2024-02-19 11h27.41.004654 -0500,
0,0,0,0,7,0,7,0,,,,,,,,,,,,,296.1582964999834,,,,,,,,296.1448037000373,301.14184350008145,301.141849800013,301.1583585999906,313.1751181000145,313.1423495000927,3,inactive,45.8,313.14250040007755,316.1110681000864,64.99999999999991,2.95,,,,,,,,,,,,,,,,,,,,,,,,,,,,,,,,,,,,,,sub-025,45.8,45.3,46.7,COM3,2024-02-19_11h27.19.547,2024_RDpaindiscrimination_maintask,2023.2.3,60.034856237362874,2024-02-19 11h27.41.004654 -0500,
0,0,0,0,8,0,8,0,,,,,,,,,,,,,316.1251498000929,,,,,,,,316.11182220000774,321.10875260003377,321.1087590000825,321.12519370007794,333.1420906999847,333.1092283000471,0,active,45.3,333.10937379999086,338.39598130004015,49.999999999999964,5.268,,,,,,,,,,,,,,,,,,,,,,,,,,,,,,,,,,,,,,sub-025,45.8,45.3,46.7,COM3,2024-02-19_11h27.19.547,2024_RDpaindiscrimination_maintask,2023.2.3,60.034856237362874,2024-02-19 11h27.41.004654 -0500,
0,0,0,0,9,0,9,0,,,,,,,,,,,,,338.40870130003896,,,,,,,,338.3967961000744,343.3923008000711,343.39230690000113,343.4087156000314,355.4255026000319,355.39264990005177,1,inactive,45.8,355.39279870002065,359.6435586999869,61.49999999999986,4.229,,,,,,,,,,,,,,,,,,,,,,,,,,,,,,,,,,,,,,sub-025,45.8,45.3,46.7,COM3,2024-02-19_11h27.19.547,2024_RDpaindiscrimination_maintask,2023.2.3,60.034856237362874,2024-02-19 11h27.41.004654 -0500,
0,0,0,0,10,0,10,0,,,,,,,,,,,,,359.6588285000762,,,,,,,,359.6443217000924,364.6423882000381,364.64239540009294,364.6588587000733,376.67567580007017,376.64285559998825,2,inactive,45.8,376.64299870003015,380.7608261000132,54.499999999999915,4.098,,,,,,,,,,,,,,,,,,,,,,,,,,,,,,,,,,,,,,sub-025,45.8,45.3,46.7,COM3,2024-02-19_11h27.19.547,2024_RDpaindiscrimination_maintask,2023.2.3,60.034856237362874,2024-02-19 11h27.41.004654 -0500,
0,0,0,0,11,0,11,0,,,,,,,,,,,,,380.77575040003285,,,,,,,,380.76162320002913,385.75939610006753,385.7594027000014,385.77581480005756,397.7926707000006,397.75976859999355,3,active,45.3,397.7599113000324,400.79480919998605,43.50000000000006,3.015,,,,,,,,,,,,,,,,,,,,,,,,,,,,,,,,,,,,,,sub-025,45.8,45.3,46.7,COM3,2024-02-19_11h27.19.547,2024_RDpaindiscrimination_maintask,2023.2.3,60.034856237362874,2024-02-19 11h27.41.004654 -0500,
0,0,0,0,12,0,12,0,,,,,,,,,,,,,400.80937240005005,,,,,,,,400.79557319998275,405.79286719998345,405.7928736000322,405.80931600008626,417.82616549998056,417.79334119998384,0,active,45.3,417.7934802999953,421.7450990000507,56.99999999999995,3.933,,,,,,,,,,,,,,,,,,,,,,,,,,,,,,,,,,,,,,sub-025,45.8,45.3,46.7,COM3,2024-02-19_11h27.19.547,2024_RDpaindiscrimination_maintask,2023.2.3,60.034856237362874,2024-02-19 11h27.41.004654 -0500,
0,0,0,0,13,0,13,0,,,,,,,,,,,,,421.75957400002517,,,,,,,,421.7454103000928,426.7430873999838,426.74309400003403,426.75955800001975,438.776320300065,438.74367510003503,1,inactive,45.8,438.7438213999849,442.17772160004824,48.500000000000114,3.414,,,,,,,,,,,,,,,,,,,,,,,,,,,,,,,,,,,,,,sub-025,45.8,45.3,46.7,COM3,2024-02-19_11h27.19.547,2024_RDpaindiscrimination_maintask,2023.2.3,60.034856237362874,2024-02-19 11h27.41.004654 -0500,
0,0,0,0,14,0,14,0,,,,,,,,,,,,,442.19312539999373,,,,,,,,442.1784581000684,447.1766397000756,447.1766467000125,447.19310100004077,459.2099670000607,459.1770730999997,2,inactive,45.8,459.1772161000408,462.1798617000459,63.99999999999995,2.984,,,,,,,,,,,,,,,,,,,,,,,,,,,,,,,,,,,,,,sub-025,45.8,45.3,46.7,COM3,2024-02-19_11h27.19.547,2024_RDpaindiscrimination_maintask,2023.2.3,60.034856237362874,2024-02-19 11h27.41.004654 -0500,
0,0,0,0,15,0,15,0,,,,,,,,,,,,,462.1932715000585,,,,,,,,462.1806094000349,467.1767404000275,467.1767463000724,467.19329740002286,479.21012990002055,479.1771584000671,3,active,45.3,479.1772946000565,481.81269779999275,54.499999999999915,2.617,,,,,,,,,,,,,,,,,,,,,,,,,,,,,,,,,,,,,,sub-025,45.8,45.3,46.7,COM3,2024-02-19_11h27.19.547,2024_RDpaindiscrimination_maintask,2023.2.3,60.034856237362874,2024-02-19 11h27.41.004654 -0500,
0,0,0,0,,,,,0,0,0,0,0,0,0,0,,,,,491.1936179000186,,,,,,489.7442134000594,491.17714480008,,,,,,,0,active,45.8,508.17745050007943,510.9623741999967,62.000000000000064,2.765,481.8132332999958,481.8267998000374,489.7438653000863,491.177432400058,496.1770428000018,496.1770500000566,496.1935302000493,508.2104094000533,508.177442300017,,,,,,,,,,,,,,,,,,,,,,,,,,,,,sub-025,45.8,45.3,46.7,COM3,2024-02-19_11h27.19.547,2024_RDpaindiscrimination_maintask,2023.2.3,60.034856237362874,2024-02-19 11h27.41.004654 -0500,
0,0,0,0,,,,,0,0,0,0,1,0,1,0,,,,,510.97715769999195,,,,,,,,,,,,,,1,inactive,45.8,527.9612941000378,529.9952334000263,49.49999999999993,2.016,,,,510.9630515000317,515.9607397000073,515.9607476000674,515.9771663000574,527.9940437000478,527.9612861000933,,,,,,,,,,,,,,,,,,,,,,,,,,,,,sub-025,45.8,45.3,46.7,COM3,2024-02-19_11h27.19.547,2024_RDpaindiscrimination_maintask,2023.2.3,60.034856237362874,2024-02-19 11h27.41.004654 -0500,
0,0,0,0,,,,,0,0,0,0,,,,,0,0,0,0,533.4773462000303,,,,,,,,,,,,,,2,active,,,,,,,,,,,,,,,529.9957428000635,533.4609864000231,533.4613163000904,538.4609263000311,538.4609337000875,538.4773080000887,546.4608729000902,546.4608729000902,549.42756500002,549.4608750999905,549.4608750999905,549.4443819000153,3.61,5.19,361,519,8,1.2,0.75,pic-present,1,n,0.9676783999893814,None,,,,,sub-025,45.8,45.3,46.7,COM3,2024-02-19_11h27.19.547,2024_RDpaindiscrimination_maintask,2023.2.3,60.034856237362874,2024-02-19 11h27.41.004654 -0500,
0,0,0,0,,,,,0,0,0,0,,,,,1,0,1,0,549.4608750999905,,,,,,,,,,,,,,3,inactive,,,,,,,,,,,,,,,,,549.4449910999974,554.4444455000339,554.4444568000035,554.4609084000112,562.4443083000369,562.4443083000369,565.4109811000526,565.4443376000272,565.4443376000272,565.4278951000888,3.29,5.51,329,551,8,1.2,0.75,pic-absent,0,m,0.739024099893868,None,,,,,sub-025,45.8,45.3,46.7,COM3,2024-02-19_11h27.19.547,2024_RDpaindiscrimination_maintask,2023.2.3,60.034856237362874,2024-02-19 11h27.41.004654 -0500,
0,0,0,0,,,,,0,0,0,0,,,,,2,0,2,0,565.4443376000272,,,,,,,,,,,,,,0,active,,,,,,,,,,,,,,,,,565.4284147000872,570.4279524000594,570.4279592999956,570.4443959000055,578.4277974000433,578.4277974000433,581.3944905999815,581.427834500093,581.427834500093,581.4113294000272,4.21,4.59,421,459,8,1.2,0.75,pic-absent,0,m,1.1239493999164551,None,,,,,sub-025,45.8,45.3,46.7,COM3,2024-02-19_11h27.19.547,2024_RDpaindiscrimination_maintask,2023.2.3,60.034856237362874,2024-02-19 11h27.41.004654 -0500,
0,0,0,0,,,,,0,0,0,0,,,,,3,0,3,0,581.427834500093,,,,,,,,,,,,,,1,inactive,,,,,,,,,,,,,,,,,581.4117843999993,586.4114135000855,586.4114210000262,586.42782360001,594.4113651000662,594.4113651000662,597.3780417999951,597.4113638000563,597.4113638000563,597.3949376000091,3.57,5.23,357,523,8,1.2,0.75,pic-present,0,m,1.6484564000274986,None,,,,,sub-025,45.8,45.3,46.7,COM3,2024-02-19_11h27.19.547,2024_RDpaindiscrimination_maintask,2023.2.3,60.034856237362874,2024-02-19 11h27.41.004654 -0500,
0,0,0,0,,,,,1,0,1,0,0,0,0,0,,,,,600.3113984999945,,,,,,597.3954166000476,600.295031900052,,,,,,,2,inactive,45.8,617.295177299995,619.3962732000509,43.49999999999995,2.081,,,,600.2953350000316,605.2950330000604,605.2950399999972,605.3114006000105,617.3281030000653,617.295169500052,,,,,,,,,,,,,,,,,,,,,,,,,,,,,sub-025,45.8,45.3,46.7,COM3,2024-02-19_11h27.19.547,2024_RDpaindiscrimination_maintask,2023.2.3,60.034856237362874,2024-02-19 11h27.41.004654 -0500,
0,0,0,0,,,,,1,0,1,0,1,0,1,0,,,,,619.4115982999792,,,,,,,,,,,,,,3,active,45.8,636.3955754000926,641.0810380000621,51.99999999999989,4.667,,,,619.396961200051,624.3951434000628,624.3951503999997,624.4116167000029,636.4284469999839,636.3955665000249,,,,,,,,,,,,,,,,,,,,,,,,,,,,,sub-025,45.8,45.3,46.7,COM3,2024-02-19_11h27.19.547,2024_RDpaindiscrimination_maintask,2023.2.3,60.034856237362874,2024-02-19 11h27.41.004654 -0500,
0,0,0,0,,,,,1,0,1,0,,,,,0,0,0,0,643.9785156000871,,,,,,,,,,,,,,0,inactive,,,,,,,,,,,,,,,641.0815627999837,643.9622628000798,643.9625488000456,648.9620364999864,648.9620436000405,648.9785571000539,656.961912900093,656.961912900093,659.9286101000616,659.9619490000186,659.9619490000186,659.9454800999956,4.12,4.68,412,468,8,1.2,0.75,pic-absent,1,n,0.5179325999924913,None,,,,,sub-025,45.8,45.3,46.7,COM3,2024-02-19_11h27.19.547,2024_RDpaindiscrimination_maintask,2023.2.3,60.034856237362874,2024-02-19 11h27.41.004654 -0500,
0,0,0,0,,,,,1,0,1,0,,,,,1,0,1,0,659.9619490000186,,,,,,,,,,,,,,1,active,,,,,,,,,,,,,,,,,659.946023400058,664.9455302000279,664.9455387000926,664.961997800041,672.9454443000723,672.9454443000723,675.9121120000491,675.9454331999877,675.9454331999877,675.929010800086,3.87,4.93,387,493,8,1.2,0.75,pic-present,1,n,0.809704800019972,None,,,,,sub-025,45.8,45.3,46.7,COM3,2024-02-19_11h27.19.547,2024_RDpaindiscrimination_maintask,2023.2.3,60.034856237362874,2024-02-19 11h27.41.004654 -0500,
0,0,0,0,,,,,1,0,1,0,,,,,2,0,2,0,675.9454331999877,,,,,,,,,,,,,,2,inactive,,,,,,,,,,,,,,,,,675.9294708999805,680.9290281999856,680.9290355000412,680.9454910000786,688.9289947000798,688.9289947000798,691.8956977000926,691.9290297999978,691.9290297999978,691.9125806000084,3.74,5.06,374,505,8,1.2,0.75,pic-absent,0,m,1.7155576000222936,None,,,,,sub-025,45.8,45.3,46.7,COM3,2024-02-19_11h27.19.547,2024_RDpaindiscrimination_maintask,2023.2.3,60.034856237362874,2024-02-19 11h27.41.004654 -0500,
0,0,0,0,,,,,1,0,1,0,,,,,3,0,3,0,691.9290297999978,,,,,,,,,,,,,,3,active,,,,,,,,,,,,,,,,,691.91304210003,696.9125218000263,696.9125296000857,696.9290579999797,704.9124982000794,704.9124982000794,707.8791563999839,707.9125293000834,707.9125293000834,707.8959980000509,4.55,4.25,455,425,8,1.2,0.75,pic-present,1,n,0.4070555999642238,None,,,,,sub-025,45.8,45.3,46.7,COM3,2024-02-19_11h27.19.547,2024_RDpaindiscrimination_maintask,2023.2.3,60.034856237362874,2024-02-19 11h27.41.004654 -0500,
0,0,0,0,,,,,2,0,2,0,0,0,0,0,,,,,709.5792078999802,,,,,,707.8965117000043,709.5627885999857,,,,,,,0,inactive,45.8,726.5631211000727,732.3647766000358,56.49999999999991,5.782,,,,709.5630952999927,714.5626947000856,714.5627012000186,714.5792242999887,726.5960077000782,726.563112600008,,,,,,,,,,,,,,,,,,,,,,,,,,,,,sub-025,45.8,45.3,46.7,COM3,2024-02-19_11h27.19.547,2024_RDpaindiscrimination_maintask,2023.2.3,60.034856237362874,2024-02-19 11h27.41.004654 -0500,
0,0,0,0,,,,,2,0,2,0,1,0,1,0,,,,,732.3793614000315,,,,,,,,,,,,,,1,active,45.8,749.3632872999879,753.9144153000088,50.49999999999993,4.484,,,,732.3654953000369,737.3629611000651,737.3629683000036,737.3794282000745,749.4462853000732,749.3632793000434,,,,,,,,,,,,,,,,,,,,,,,,,,,,,sub-025,45.8,45.3,46.7,COM3,2024-02-19_11h27.19.547,2024_RDpaindiscrimination_maintask,2023.2.3,60.034856237362874,2024-02-19 11h27.41.004654 -0500,
0,0,0,0,,,,,2,0,2,0,,,,,0,0,0,0,756.2629849000368,,,,,,,,,,,,,,2,active,,,,,,,,,,,,,,,753.9149007999804,756.2466173000867,756.2469588000095,761.2466060000006,761.2466129000532,761.2629933999851,769.2464624000713,769.2464624000713,772.2131719000172,772.2464856000151,772.2464856000151,772.2299713999964,4.22,4.58,422,458,8,1.2,0.75,pic-absent,0,m,0.46520840004086494,None,,,,,sub-025,45.8,45.3,46.7,COM3,2024-02-19_11h27.19.547,2024_RDpaindiscrimination_maintask,2023.2.3,60.034856237362874,2024-02-19 11h27.41.004654 -0500,
0,0,0,0,,,,,2,0,2,0,,,,,1,0,1,0,772.2464856000151,,,,,,,,,,,,,,3,inactive,,,,,,,,,,,,,,,,,772.2304864000762,777.230111700017,777.2301185000688,777.2465229000663,785.2299013000447,785.2299013000447,788.1966817000648,788.2300152999815,788.2300152999815,788.2135322000831,4.65,4.15,465,415,8,1.2,0.75,pic-present,1,n,0.4258433000650257,None,,,,,sub-025,45.8,45.3,46.7,COM3,2024-02-19_11h27.19.547,2024_RDpaindiscrimination_maintask,2023.2.3,60.034856237362874,2024-02-19 11h27.41.004654 -0500,
0,0,0,0,,,,,2,0,2,0,,,,,2,0,2,0,788.2300152999815,,,,,,,,,,,,,,0,active,,,,,,,,,,,,,,,,,788.2139815000119,793.2136441000039,793.2136509000557,793.2300672000274,801.2134795000311,801.2134795000311,804.180200300063,804.2134997000685,804.2134997000685,804.1969750000862,3.37,5.43,337,543,8,1.2,0.75,pic-present,1,n,0.33894829999189824,None,,,,,sub-025,45.8,45.3,46.7,COM3,2024-02-19_11h27.19.547,2024_RDpaindiscrimination_maintask,2023.2.3,60.034856237362874,2024-02-19 11h27.41.004654 -0500,
0,0,0,0,,,,,2,0,2,0,,,,,3,0,3,0,804.2134997000685,,,,,,,,,,,,,,1,active,,,,,,,,,,,,,,,,,804.1974277000409,809.1971011999995,809.1971082000528,809.2135356999934,817.1969393000472,817.1969393000472,820.1636126000667,820.1970153000439,820.1970153000439,820.1804690000135,3.67,5.13,367,513,8,1.2,0.75,pic-absent,0,m,0.34695630008354783,None,,,,,sub-025,45.8,45.3,46.7,COM3,2024-02-19_11h27.19.547,2024_RDpaindiscrimination_maintask,2023.2.3,60.034856237362874,2024-02-19 11h27.41.004654 -0500,
0,0,0,0,,,,,3,0,3,0,0,0,0,0,,,,,821.7636565000284,,,,,,820.1809825000819,821.7472824000288,,,,,,,2,active,45.8,838.7476893999847,841.4161609000294,38.50000000000004,2.649,,,,821.7475978999864,826.7472478999989,826.7472570000682,826.763711100095,838.7805039000232,838.7476809000364,,,,,,,,,,,,,,,,,,,,,,,,,,,,,sub-025,45.8,45.3,46.7,COM3,2024-02-19_11h27.19.547,2024_RDpaindiscrimination_maintask,2023.2.3,60.034856237362874,2024-02-19 11h27.41.004654 -0500,
0,0,0,0,,,,,3,0,3,0,1,0,1,0,,,,,841.4305297000101,,,,,,,,,,,,,,3,inactive,45.8,858.4144747999962,861.0000312000047,53.99999999999988,2.565,,,,841.4168457000051,846.4141828999855,846.4141893000342,846.430540899979,858.4473687000573,858.414466700051,,,,,,,,,,,,,,,,,,,,,,,,,,,,,sub-025,45.8,45.3,46.7,COM3,2024-02-19_11h27.19.547,2024_RDpaindiscrimination_maintask,2023.2.3,60.034856237362874,2024-02-19 11h27.41.004654 -0500,
0,0,0,0,,,,,3,0,3,0,,,,,0,0,0,0,862.5140842000255,,,,,,,,,,,,,,0,inactive,,,,,,,,,,,,,,,861.0005552000366,862.4978992000688,862.4982096999884,867.4977447000565,867.4977518999949,867.5141877999995,875.4975531999953,875.4975531999953,878.4641333000036,878.4974984000437,878.4974984000437,878.4810601000208,4.73,4.07,473,407,8,1.2,0.75,pic-present,1,n,0.30611300002783537,None,,,,,sub-025,45.8,45.3,46.7,COM3,2024-02-19_11h27.19.547,2024_RDpaindiscrimination_maintask,2023.2.3,60.034856237362874,2024-02-19 11h27.41.004654 -0500,
0,0,0,0,,,,,3,0,3,0,,,,,1,0,1,0,878.4974984000437,,,,,,,,,,,,,,1,active,,,,,,,,,,,,,,,,,878.4815786000108,883.4809919000836,883.4809992000228,883.4975133000407,891.4809322000947,891.4809322000947,894.4476301000686,894.480961500085,894.480961500085,894.4645661000395,3.54,5.26,354,526,8,1.2,0.75,pic-absent,0,m,0.4542561999987811,None,,,,,sub-025,45.8,45.3,46.7,COM3,2024-02-19_11h27.19.547,2024_RDpaindiscrimination_maintask,2023.2.3,60.034856237362874,2024-02-19 11h27.41.004654 -0500,
0,0,0,0,,,,,3,0,3,0,,,,,2,0,2,0,894.480961500085,,,,,,,,,,,,,,2,inactive,,,,,,,,,,,,,,,,,894.4650804999983,899.4645350000355,899.4645424000919,899.4810131000122,907.4645519000478,907.4645519000478,910.4312065000413,910.4645568000851,910.4645568000851,910.448046100093,3.54,5.26,354,526,8,1.2,0.75,pic-present,0,m,0.8382946000201628,None,,,,,sub-025,45.8,45.3,46.7,COM3,2024-02-19_11h27.19.547,2024_RDpaindiscrimination_maintask,2023.2.3,60.034856237362874,2024-02-19 11h27.41.004654 -0500,
0,0,0,0,,,,,3,0,3,0,,,,,3,0,3,0,910.4645568000851,,,,,,,,,,,,,,3,inactive,,,,,,,,,,,,,,,,,910.4485771000618,915.448215899989,915.4482228000415,915.4646631000796,923.4480881000636,923.4480881000636,926.4146985000698,926.4479446000187,926.4479446000187,926.431546100066,4.19,4.61,419,461,8,1.2,0.75,pic-absent,1,n,0.6114230999955907,None,,,,,sub-025,45.8,45.3,46.7,COM3,2024-02-19_11h27.19.547,2024_RDpaindiscrimination_maintask,2023.2.3,60.034856237362874,2024-02-19 11h27.41.004654 -0500,
1,0,1,0,0,0,0,0,,,,,,,,,,,,,1006.1821462000953,,,,999.7825793999946,1003.6824688999914,1003.682477000053,1006.165793800028,1006.1660832000198,1011.1657105000922,1011.1657181000337,1011.1822223000927,1023.199071799987,1023.166186699993,0,inactive,45.8,1023.1664133000886,1024.9507228999864,70.0,1.762,,,,,,,,,,,,,,,,,,,,,,,,,,,,,,,,,,926.4319887000602,999.7824562999886,,,sub-025,45.8,45.3,46.7,COM3,2024-02-19_11h27.19.547,2024_RDpaindiscrimination_maintask,2023.2.3,60.034856237362874,2024-02-19 11h27.41.004654 -0500,
1,0,1,0,1,0,1,0,,,,,,,,,,,,,1024.9658262000885,,,,,,,,1024.951579399989,1029.9492760000285,1029.9492828000803,1029.9657746000448,1041.9826279000845,1041.9498044000939,1,active,45.3,1041.9499434999889,1045.0847715000855,45.499999999999915,3.115,,,,,,,,,,,,,,,,,,,,,,,,,,,,,,,,,,,,,,sub-025,45.8,45.3,46.7,COM3,2024-02-19_11h27.19.547,2024_RDpaindiscrimination_maintask,2023.2.3,60.034856237362874,2024-02-19 11h27.41.004654 -0500,
1,0,1,0,2,0,2,0,,,,,,,,,,,,,1045.099258900038,,,,,,,,1045.0855129000265,1050.0827980000759,1050.0828050000127,1050.0992766000563,1062.1161722000688,1062.0833321000682,2,active,45.3,1062.0834732000949,1068.6861088000005,51.5000000000001,6.584,,,,,,,,,,,,,,,,,,,,,,,,,,,,,,,,,,,,,,sub-025,45.8,45.3,46.7,COM3,2024-02-19_11h27.19.547,2024_RDpaindiscrimination_maintask,2023.2.3,60.034856237362874,2024-02-19 11h27.41.004654 -0500,
1,0,1,0,3,0,3,0,,,,,,,,,,,,,1068.6995397000574,,,,,,,,1068.6869012999814,1073.6830495999893,1073.6830561000388,1073.6996236999985,1085.7163893000688,1085.6835324000567,3,inactive,45.8,1085.683677299996,1088.6176840000553,48.50000000000004,2.916,,,,,,,,,,,,,,,,,,,,,,,,,,,,,,,,,,,,,,sub-025,45.8,45.3,46.7,COM3,2024-02-19_11h27.19.547,2024_RDpaindiscrimination_maintask,2023.2.3,60.034856237362874,2024-02-19 11h27.41.004654 -0500,
1,0,1,0,4,0,4,0,,,,,,,,,,,,,1088.6330390999792,,,,,,,,1088.6184329000534,1093.6166232000105,1093.616633900092,1093.6330283000134,1105.6499531000154,1105.617635200033,0,active,45.3,1105.6177793000825,1111.7697735000402,52.99999999999989,6.133,,,,,,,,,,,,,,,,,,,,,,,,,,,,,,,,,,,,,,sub-025,45.8,45.3,46.7,COM3,2024-02-19_11h27.19.547,2024_RDpaindiscrimination_maintask,2023.2.3,60.034856237362874,2024-02-19 11h27.41.004654 -0500,
1,0,1,0,5,0,5,0,,,,,,,,,,,,,1111.7834352999926,,,,,,,,1111.7705850000493,1116.7669014000567,1116.7669083999936,1116.78336510004,1128.8002186000813,1128.7672873000847,1,inactive,45.8,1128.76743170002,1131.219212200027,64.99999999999991,2.434,,,,,,,,,,,,,,,,,,,,,,,,,,,,,,,,,,,,,,sub-025,45.8,45.3,46.7,COM3,2024-02-19_11h27.19.547,2024_RDpaindiscrimination_maintask,2023.2.3,60.034856237362874,2024-02-19 11h27.41.004654 -0500,
1,0,1,0,6,0,6,0,,,,,,,,,,,,,1131.2336090999888,,,,,,,,1131.2199781000381,1136.2170700000133,1136.2170765000628,1136.233576400089,1148.2502890999895,1148.2174232000252,2,active,45.3,1148.217565500061,1152.0027751000598,33.49999999999995,3.764,,,,,,,,,,,,,,,,,,,,,,,,,,,,,,,,,,,,,,sub-025,45.8,45.3,46.7,COM3,2024-02-19_11h27.19.547,2024_RDpaindiscrimination_maintask,2023.2.3,60.034856237362874,2024-02-19 11h27.41.004654 -0500,
1,0,1,0,7,0,7,0,,,,,,,,,,,,,1152.0170191000216,,,,,,,,1152.0035191000206,1157.000597300008,1157.0006037000567,1157.0171366999857,1169.033931300044,1169.001072300016,3,inactive,45.8,1169.001215800061,1172.6367385000922,75.4999999999998,3.615,,,,,,,,,,,,,,,,,,,,,,,,,,,,,,,,,,,,,,sub-025,45.8,45.3,46.7,COM3,2024-02-19_11h27.19.547,2024_RDpaindiscrimination_maintask,2023.2.3,60.034856237362874,2024-02-19 11h27.41.004654 -0500,
1,0,1,0,8,0,8,0,,,,,,,,,,,,,1172.6506441000383,,,,,,,,1172.6375042999862,1177.6341032000491,1177.6341100999853,1177.6506319000619,1189.667445900035,1189.6346033000154,0,inactive,45.8,1189.6347431000322,1194.3198744000401,75.4999999999998,4.665,,,,,,,,,,,,,,,,,,,,,,,,,,,,,,,,,,,,,,sub-025,45.8,45.3,46.7,COM3,2024-02-19_11h27.19.547,2024_RDpaindiscrimination_maintask,2023.2.3,60.034856237362874,2024-02-19 11h27.41.004654 -0500,
1,0,1,0,9,0,9,0,,,,,,,,,,,,,1194.3341766999802,,,,,,,,1194.320641700062,1199.3176482000854,1199.3176555000246,1199.334131999989,1211.3510443000123,1211.3181588000152,1,active,45.3,1211.3183026000625,1213.8369405000703,23.500000000000057,2.5,,,,,,,,,,,,,,,,,,,,,,,,,,,,,,,,,,,,,,sub-025,45.8,45.3,46.7,COM3,2024-02-19_11h27.19.547,2024_RDpaindiscrimination_maintask,2023.2.3,60.034856237362874,2024-02-19 11h27.41.004654 -0500,
1,0,1,0,10,0,10,0,,,,,,,,,,,,,1213.851139400038,,,,,,,,1213.837686700048,1218.8345493000234,1218.8345558000728,1218.8510172000388,1230.8678403000813,1230.8350110000465,2,inactive,45.8,1230.835151300067,1235.4876608999912,81.99999999999982,4.633,,,,,,,,,,,,,,,,,,,,,,,,,,,,,,,,,,,,,,sub-025,45.8,45.3,46.7,COM3,2024-02-19_11h27.19.547,2024_RDpaindiscrimination_maintask,2023.2.3,60.034856237362874,2024-02-19 11h27.41.004654 -0500,
1,0,1,0,11,0,11,0,,,,,,,,,,,,,1235.5012717000209,,,,,,,,1235.488429000019,1240.4848536000354,1240.4848599000834,1240.501245200052,1252.5181489000097,1252.485286100069,3,active,45.3,1252.4854282999877,1256.1703201000346,57.000000000000085,3.665,,,,,,,,,,,,,,,,,,,,,,,,,,,,,,,,,,,,,,sub-025,45.8,45.3,46.7,COM3,2024-02-19_11h27.19.547,2024_RDpaindiscrimination_maintask,2023.2.3,60.034856237362874,2024-02-19 11h27.41.004654 -0500,
1,0,1,0,12,0,12,0,,,,,,,,,,,,,1256.1848479000619,,,,,,,,1256.171087200055,1261.1686425000662,1261.168653700035,1261.184865300078,1273.201681100065,1273.1690164000029,0,active,45.3,1273.169154000003,1275.9366345000453,77.99999999999994,2.746,,,,,,,,,,,,,,,,,,,,,,,,,,,,,,,,,,,,,,sub-025,45.8,45.3,46.7,COM3,2024-02-19_11h27.19.547,2024_RDpaindiscrimination_maintask,2023.2.3,60.034856237362874,2024-02-19 11h27.41.004654 -0500,
1,0,1,0,13,0,13,0,,,,,,,,,,,,,1275.9517118000658,,,,,,,,1275.9373936000047,1280.9353586999932,1280.935365500045,1280.9517379000317,1292.9685276000528,1292.9356946999906,1,inactive,45.8,1292.9358381000347,1297.270296300063,68.00000000000004,4.315,,,,,,,,,,,,,,,,,,,,,,,,,,,,,,,,,,,,,,sub-025,45.8,45.3,46.7,COM3,2024-02-19_11h27.19.547,2024_RDpaindiscrimination_maintask,2023.2.3,60.034856237362874,2024-02-19 11h27.41.004654 -0500,
1,0,1,0,14,0,14,0,,,,,,,,,,,,,1297.285282600089,,,,,,,,1297.271090800059,1302.2688230000203,1302.268829900073,1302.2853281000862,1314.3020667000674,1314.2692373000318,2,inactive,45.8,1314.2693833999801,1318.1206120999996,74.99999999999984,3.832,,,,,,,,,,,,,,,,,,,,,,,,,,,,,,,,,,,,,,sub-025,45.8,45.3,46.7,COM3,2024-02-19_11h27.19.547,2024_RDpaindiscrimination_maintask,2023.2.3,60.034856237362874,2024-02-19 11h27.41.004654 -0500,
1,0,1,0,15,0,15,0,,,,,,,,,,,,,1318.135424499982,,,,,,,,1318.121352200047,1323.1189838000573,1323.1189905999927,1323.1354296000209,1335.1522079000715,1335.1194000000833,3,active,45.3,1335.11954720004,1338.4720130000496,36.99999999999995,3.333,,,,,,,,,,,,,,,,,,,,,,,,,,,,,,,,,,,,,,sub-025,45.8,45.3,46.7,COM3,2024-02-19_11h27.19.547,2024_RDpaindiscrimination_maintask,2023.2.3,60.034856237362874,2024-02-19 11h27.41.004654 -0500,
1,0,1,0,,,,,0,0,0,0,0,0,0,0,,,,,1342.752427700092,,,,,,1340.953017199994,1342.736050000065,,,,,,,0,inactive,45.8,1359.7361462999834,1361.5393777000718,72.99999999999991,1.783,1338.4726094000507,1338.4855900000548,1340.9526744000614,1342.7363532000454,1347.7360468000406,1347.7360546999844,1347.7523932000622,1359.7691309000365,1359.7361376000335,,,,,,,,,,,,,,,,,,,,,,,,,,,,,sub-025,45.8,45.3,46.7,COM3,2024-02-19_11h27.19.547,2024_RDpaindiscrimination_maintask,2023.2.3,60.034856237362874,2024-02-19 11h27.41.004654 -0500,
1,0,1,0,,,,,0,0,0,0,1,0,1,0,,,,,1361.5525229000486,,,,,,,,,,,,,,1,active,45.8,1378.5364690000424,1382.2047236000653,50.00000000000007,3.648,,,,1361.5401575000724,1366.53602530004,1366.5360321000917,1366.5525383000495,1378.5693546000402,1378.5364609999815,,,,,,,,,,,,,,,,,,,,,,,,,,,,,sub-025,45.8,45.3,46.7,COM3,2024-02-19_11h27.19.547,2024_RDpaindiscrimination_maintask,2023.2.3,60.034856237362874,2024-02-19 11h27.41.004654 -0500,
1,0,1,0,,,,,0,0,0,0,,,,,0,0,0,0,1384.2193913999945,,,,,,,,,,,,,,2,inactive,,,,,,,,,,,,,,,1382.205267500016,1384.2029673000798,1384.2032823000336,1389.2030327999964,1389.2030403000535,1389.2194407000206,1397.202888800064,1397.202888800064,1400.169547800091,1400.202880900004,1400.202880900004,1400.186483400059,4.66,4.14,466,413,8,1.2,0.75,pic-present,1,n,0.415677500073798,None,,,,,sub-025,45.8,45.3,46.7,COM3,2024-02-19_11h27.19.547,2024_RDpaindiscrimination_maintask,2023.2.3,60.034856237362874,2024-02-19 11h27.41.004654 -0500,
1,0,1,0,,,,,0,0,0,0,,,,,1,0,1,0,1400.202880900004,,,,,,,,,,,,,,3,inactive,,,,,,,,,,,,,,,,,1400.1870188000612,1405.1864167000167,1405.18642370007,1405.2028946999926,1413.1864197000396,1413.1864197000396,1416.1531478000106,1416.1864186000312,1416.1864186000312,1416.1699132000795,4.12,4.68,412,468,8,1.2,0.75,pic-absent,1,n,0.5675555999623612,None,,,,,sub-025,45.8,45.3,46.7,COM3,2024-02-19_11h27.19.547,2024_RDpaindiscrimination_maintask,2023.2.3,60.034856237362874,2024-02-19 11h27.41.004654 -0500,
1,0,1,0,,,,,0,0,0,0,,,,,2,0,2,0,1416.1864186000312,,,,,,,,,,,,,,0,active,,,,,,,,,,,,,,,,,1416.1703491000226,1421.1700106000062,1421.1700175000587,1421.1864348000381,1429.1698904000223,1429.1698904000223,1432.136552000069,1432.1700168000534,1432.1700168000534,1432.1534537000116,4.18,4.62,418,462,8,1.2,0.75,pic-present,1,n,0.6678620999446139,None,,,,,sub-025,45.8,45.3,46.7,COM3,2024-02-19_11h27.19.547,2024_RDpaindiscrimination_maintask,2023.2.3,60.034856237362874,2024-02-19 11h27.41.004654 -0500,
1,0,1,0,,,,,0,0,0,0,,,,,3,0,3,0,1432.1700168000534,,,,,,,,,,,,,,1,active,,,,,,,,,,,,,,,,,1432.1539458000334,1437.1534625000786,1437.1534692000132,1437.1699678000296,1445.1534412000328,1445.1534412000328,1448.1201110000256,1448.1534593000542,1448.1534593000542,1448.1369647000683,4.08,4.72,408,472,8,1.2,0.75,pic-present,1,n,1.049555099918507,None,,,,,sub-025,45.8,45.3,46.7,COM3,2024-02-19_11h27.19.547,2024_RDpaindiscrimination_maintask,2023.2.3,60.034856237362874,2024-02-19 11h27.41.004654 -0500,
1,0,1,0,,,,,1,0,1,0,0,0,0,0,,,,,1450.6201246000128,,,,,,1448.1375030000927,1450.603697600076,,,,,,,2,active,45.8,1467.6037470999872,1472.3232940000016,53.999999999999915,4.701,,,,1450.6040098000085,1455.603652800084,1455.6036599000217,1455.6201328000752,,1467.6037387000397,,,,,,,,,,,,,,,,,,,,,,,,,,,,,sub-025,45.8,45.3,46.7,COM3,2024-02-19_11h27.19.547,2024_RDpaindiscrimination_maintask,2023.2.3,60.034856237362874,2024-02-19 11h27.41.004654 -0500,
1,0,1,0,,,,,1,0,1,0,1,0,1,0,,,,,1472.3370401000138,,,,,,,,,,,,,,3,inactive,45.8,1489.3210187000223,1495.2061856000219,60.499999999999865,5.867,,,,1472.3240050000604,1477.3205473000417,1477.320556999999,1477.3371028000256,1489.3538346000714,1489.3210105000762,,,,,,,,,,,,,,,,,,,,,,,,,,,,,sub-025,45.8,45.3,46.7,COM3,2024-02-19_11h27.19.547,2024_RDpaindiscrimination_maintask,2023.2.3,60.034856237362874,2024-02-19 11h27.41.004654 -0500,
1,0,1,0,,,,,1,0,1,0,,,,,0,0,0,0,1497.053973000031,,,,,,,,,,,,,,0,inactive,,,,,,,,,,,,,,,1495.2066913000308,1497.0375143000856,1497.037834500079,1502.0375345000066,1502.0375416000606,1502.0539519999875,1510.0374132000143,1510.0374132000143,1513.004045800073,1513.0374394999817,1513.0374394999817,1513.020901300013,3.59,5.21,359,521,8,1.2,0.75,pic-absent,0,m,0.7289199000224471,None,,,,,sub-025,45.8,45.3,46.7,COM3,2024-02-19_11h27.19.547,2024_RDpaindiscrimination_maintask,2023.2.3,60.034856237362874,2024-02-19 11h27.41.004654 -0500,
1,0,1,0,,,,,1,0,1,0,,,,,1,0,1,0,1513.0374394999817,,,,,,,,,,,,,,1,active,,,,,,,,,,,,,,,,,1513.0214400000405,1518.020975899999,1518.0209831000539,1518.0374385000905,1526.0208464000607,1526.0208464000607,1528.9875784000615,1529.020880300086,1529.020880300086,1529.0043980000773,4.57,4.23,457,423,8,1.2,0.75,pic-present,1,n,0.4487913000630215,None,,,,,sub-025,45.8,45.3,46.7,COM3,2024-02-19_11h27.19.547,2024_RDpaindiscrimination_maintask,2023.2.3,60.034856237362874,2024-02-19 11h27.41.004654 -0500,
1,0,1,0,,,,,1,0,1,0,,,,,2,0,2,0,1529.020880300086,,,,,,,,,,,,,,2,inactive,,,,,,,,,,,,,,,,,1529.004837900051,1534.0045177000575,1534.0045248999959,1534.0209003000055,1542.004425900057,1542.004425900057,1544.9710396000883,1545.0044088000432,1545.0044088000432,1544.9881169000873,4.54,4.26,454,426,8,1.2,0.75,pic-present,1,n,0.5495421000523493,None,,,,,sub-025,45.8,45.3,46.7,COM3,2024-02-19_11h27.19.547,2024_RDpaindiscrimination_maintask,2023.2.3,60.034856237362874,2024-02-19 11h27.41.004654 -0500,
1,0,1,0,,,,,1,0,1,0,,,,,3,0,3,0,1545.0044088000432,,,,,,,,,,,,,,3,inactive,,,,,,,,,,,,,,,,,1544.9885707000503,1549.9879520999966,1549.9879588000476,1550.0044330999954,1557.9878461000044,1557.9878461000044,1560.9545379000483,1560.9878699000692,1560.9878699000692,1560.971685299999,3.89,4.91,389,491,8,1.2,0.75,pic-absent,0,m,0.4660110999830067,None,,,,,sub-025,45.8,45.3,46.7,COM3,2024-02-19_11h27.19.547,2024_RDpaindiscrimination_maintask,2023.2.3,60.034856237362874,2024-02-19 11h27.41.004654 -0500,
1,0,1,0,,,,,2,0,2,0,0,0,0,0,,,,,1562.3712284000358,,,,,,1560.9721770000178,1562.354832699988,,,,,,,0,active,45.8,1579.355326800025,1582.2910519000143,67.49999999999987,2.916,,,,1562.355146100046,1567.3548153000884,1567.3548225000268,1567.3713666000403,1579.3880988000892,1579.3553179000737,,,,,,,,,,,,,,,,,,,,,,,,,,,,,sub-025,45.8,45.3,46.7,COM3,2024-02-19_11h27.19.547,2024_RDpaindiscrimination_maintask,2023.2.3,60.034856237362874,2024-02-19 11h27.41.004654 -0500,
1,0,1,0,,,,,2,0,2,0,1,0,1,0,,,,,1582.3048701999942,,,,,,,,,,,,,,1,inactive,45.8,1599.2890281000873,1602.424002500018,59.50000000000007,3.115,,,,1582.2918211000506,1587.2883529000683,1587.2883602000074,1587.3048284000251,1599.3216424999991,1599.2890201000264,,,,,,,,,,,,,,,,,,,,,,,,,,,,,sub-025,45.8,45.3,46.7,COM3,2024-02-19_11h27.19.547,2024_RDpaindiscrimination_maintask,2023.2.3,60.034856237362874,2024-02-19 11h27.41.004654 -0500,
1,0,1,0,,,,,2,0,2,0,,,,,0,0,0,0,1603.9384186000098,,,,,,,,,,,,,,2,active,,,,,,,,,,,,,,,1602.4244921000209,1603.9219535000157,1603.9222589000128,1608.921900000074,1608.921907800017,1608.938404400018,1616.9218576999847,1616.9218576999847,1619.8885422000894,1619.9218512000516,1619.9218512000516,1619.905368900043,3.56,5.24,356,524,8,1.2,0.75,pic-absent,0,m,0.3559137999545783,None,,,,,sub-025,45.8,45.3,46.7,COM3,2024-02-19_11h27.19.547,2024_RDpaindiscrimination_maintask,2023.2.3,60.034856237362874,2024-02-19 11h27.41.004654 -0500,
1,0,1,0,,,,,2,0,2,0,,,,,1,0,1,0,1619.9218512000516,,,,,,,,,,,,,,3,inactive,,,,,,,,,,,,,,,,,1619.9059497000417,1624.9053913999815,1624.9053982000332,1624.9219046999933,1632.9053984000348,1632.9053984000348,1635.8720187,1635.905404200079,1635.905404200079,1635.888905400061,4.38,4.42,438,442,8,1.2,0.75,pic-present,1,n,0.3641657999251038,None,,,,,sub-025,45.8,45.3,46.7,COM3,2024-02-19_11h27.19.547,2024_RDpaindiscrimination_maintask,2023.2.3,60.034856237362874,2024-02-19 11h27.41.004654 -0500,
1,0,1,0,,,,,2,0,2,0,,,,,2,0,2,0,1635.905404200079,,,,,,,,,,,,,,0,active,,,,,,,,,,,,,,,,,1635.8893595000263,1640.888896599994,1640.8889038000489,1640.9053758999798,1648.8888344999868,1648.8888344999868,1651.8555238000117,1651.8889222000726,1651.8889222000726,1651.8724398000631,3.42,5.38,342,538,8,1.2,0.75,pic-absent,1,n,0.8448881000513211,None,,,,,sub-025,45.8,45.3,46.7,COM3,2024-02-19_11h27.19.547,2024_RDpaindiscrimination_maintask,2023.2.3,60.034856237362874,2024-02-19 11h27.41.004654 -0500,
1,0,1,0,,,,,2,0,2,0,,,,,3,0,3,0,1651.8889222000726,,,,,,,,,,,,,,1,inactive,,,,,,,,,,,,,,,,,1651.8728938000277,1656.872519500088,1656.872526400024,1656.8889022000367,1664.8723167000571,1664.8723167000571,1667.8390178000554,1667.8723482000642,1667.8723482000642,1667.8559196999995,4.54,4.26,454,426,8,1.2,0.75,pic-present,0,m,1.4654461999889463,None,,,,,sub-025,45.8,45.3,46.7,COM3,2024-02-19_11h27.19.547,2024_RDpaindiscrimination_maintask,2023.2.3,60.034856237362874,2024-02-19 11h27.41.004654 -0500,
1,0,1,0,,,,,3,0,3,0,0,0,0,0,,,,,1669.8057148000225,,,,,,1667.8566920000594,1669.789305399987,,,,,,,2,inactive,45.8,1686.7897037999937,1690.7091911000898,58.99999999999993,3.901,,,,1669.7896198000526,1674.7892876000842,1674.7892950000241,1674.8057542000897,1686.8225498000393,1686.78969460004,,,,,,,,,,,,,,,,,,,,,,,,,,,,,sub-025,45.8,45.3,46.7,COM3,2024-02-19_11h27.19.547,2024_RDpaindiscrimination_maintask,2023.2.3,60.034856237362874,2024-02-19 11h27.41.004654 -0500,
1,0,1,0,,,,,3,0,3,0,1,0,1,0,,,,,1690.7226293000858,,,,,,,,,,,,,,3,active,45.8,1707.7065243000397,1714.9578652000055,65.50000000000006,7.233,,,,1690.7099966000533,1695.7061289000558,1695.706135799992,1695.7226874000626,1707.73945870006,1707.7065163999796,,,,,,,,,,,,,,,,,,,,,,,,,,,,,sub-025,45.8,45.3,46.7,COM3,2024-02-19_11h27.19.547,2024_RDpaindiscrimination_maintask,2023.2.3,60.034856237362874,2024-02-19 11h27.41.004654 -0500,
1,0,1,0,,,,,3,0,3,0,,,,,0,0,0,0,1717.389567599981,,,,,,,,,,,,,,0,active,,,,,,,,,,,,,,,1714.958362000063,1717.373153100023,1717.373473100015,1722.373073499999,1722.3730801000493,1722.3896010000026,1730.3730305000208,1730.3730305000208,1733.3396943000844,1733.3730237000855,1733.3730237000855,1733.3565874000778,4.28,4.52,428,451,8,1.2,0.75,pic-present,1,n,0.4126280000200495,None,,,,,sub-025,45.8,45.3,46.7,COM3,2024-02-19_11h27.19.547,2024_RDpaindiscrimination_maintask,2023.2.3,60.034856237362874,2024-02-19 11h27.41.004654 -0500,
1,0,1,0,,,,,3,0,3,0,,,,,1,0,1,0,1733.3730237000855,,,,,,,,,,,,,,1,active,,,,,,,,,,,,,,,,,1733.3571063000709,1738.3566177000757,1738.3566252000164,1738.3730745000066,1746.3564940000651,1746.3564940000651,1749.323274900089,1749.3566123000346,1749.3566123000346,1749.3401455000276,3.68,5.12,368,512,8,1.2,0.75,pic-absent,0,m,0.46891840000171214,None,,,,,sub-025,45.8,45.3,46.7,COM3,2024-02-19_11h27.19.547,2024_RDpaindiscrimination_maintask,2023.2.3,60.034856237362874,2024-02-19 11h27.41.004654 -0500,
1,0,1,0,,,,,3,0,3,0,,,,,2,0,2,0,1749.3566123000346,,,,,,,,,,,,,,2,inactive,,,,,,,,,,,,,,,,,1749.3406159000006,1754.3401456000283,1754.3401527000824,1754.3565451999893,1762.3402576000663,1762.3402576000663,1765.306715200073,1765.3399884999963,1765.3399884999963,1765.323511500028,4.2,4.6,420,459,8,1.2,0.75,pic-absent,0,m,1.3693681000731885,None,,,,,sub-025,45.8,45.3,46.7,COM3,2024-02-19_11h27.19.547,2024_RDpaindiscrimination_maintask,2023.2.3,60.034856237362874,2024-02-19 11h27.41.004654 -0500,
1,0,1,0,,,,,3,0,3,0,,,,,3,0,3,0,1765.3399884999963,,,,,,,,,,,,,,3,active,,,,,,,,,,,,,,,,,1765.324097200064,1770.3235238000052,1770.32353100006,1770.3400439000688,1778.3234545000596,1778.3234545000596,1781.2902346000774,1781.3236091000726,1781.3236091000726,1781.3071592000779,4.36,4.44,436,444,8,1.2,0.75,pic-absent,0,m,1.5619032999966294,None,,,,,sub-025,45.8,45.3,46.7,COM3,2024-02-19_11h27.19.547,2024_RDpaindiscrimination_maintask,2023.2.3,60.034856237362874,2024-02-19 11h27.41.004654 -0500,
,,,,,,,,,,,,,,,,,,,,,,,,,,,,,,,,,,,,,,,,,,,,,,,,,,,,,,,,,,,,,,,,,,,,,,,,,,1781.3075896999799,1800.3406363000395,1800.3406547000632,1810.3408361000475,,,,,,,,,,,
