trials.thisRepN,trials.thisTrialN,trials.thisN,trials.thisIndex,loop_test.thisRepN,loop_test.thisTrialN,loop_test.thisN,loop_test.thisIndex,loop_eval_discri.thisRepN,loop_eval_discri.thisTrialN,loop_eval_discri.thisN,loop_eval_discri.thisIndex,loop_eval.thisRepN,loop_eval.thisTrialN,loop_eval.thisN,loop_eval.thisIndex,loop_discri.thisRepN,loop_discri.thisTrialN,loop_discri.thisN,loop_discri.thisIndex,thisRow.t,notes,Set_up.started,Set_up.stopped,electrode_check.started,electrode_check.stopped,instructions_eval.started,instructions_eval.stopped,pause_5_test.started,pause_5_test.stopped,Phase_Test.started,thermode_locali.started,thermode_locali.stopped,Phase_Test.stopped,loca_thermode,condition,temp_trial_sent,eval_douleur.started,eval_douleur.stopped,ratingScale.response,ratingScale.rt,Fin_test.started,text.started,Fin_test.stopped,pause_5_EVA.started,pause_5_EVA.stopped,tâche_EVA.started,thermode_locali_EVA.started,thermode_locali_EVA.stopped,tâche_EVA.stopped,instructions_discrim.started,instructions_discrim.stopped,pause_5_pic.started,pause_5_pic.stopped,tâche_PIC.started,thermode_locali_pic.started,percu_or.started,responser.started,thermode_locali_pic.stopped,percu_or.stopped,responser.stopped,tâche_PIC.stopped,dur_plateau1,dur_plateau2,dur_plateau1_sent,dur_plateau2_sent,start_plateau_2_resp,dur_pic,dur_rise,pic_presence,pic_response,discrimin_resp.keys,discrimin_resp.rt,discrimin_resp.duration,break_entre_bloc.started,break_entre_bloc.stopped,merci.started,merci.stopped,participant,temp_flat,temp_active,temp_pic_set,com_thermode,date,expName,psychopyVersion,frameRate,expStart,
0,0,0,0,0,0,0,0,,,,,,,,,,,,,131.19159259996377,,0.0069954999489709735,121.79193199996371,121.79230929992627,124.85859919991344,124.85860679997131,131.17547189991456,131.1757638999261,136.17529239994474,136.17529879999347,136.19173979992047,148.2084792999085,148.17570549994707,0,active,41.0,148.175926099997,152.4602696999209,29.499999999999975,4.261,,,,,,,,,,,,,,,,,,,,,,,,,,,,,,,,,,,,,,sub-037,41.8,41.0,42.7,COM3,2024-05-23_12h08.55.131,2024_RDpaindiscrimination_maintask,2023.2.3,59.989045986630124,2024-05-23 12h09.22.524816 -0400,
0,0,0,0,1,0,1,0,,,,,,,,,,,,,152.47524770000018,,,,,,,,152.46116019994952,157.45884649991058,157.45885299996007,157.47535329998937,169.49214979994576,169.4593326000031,1,active,41.0,169.45947789994534,174.97684299992397,21.500000000000206,5.498,,,,,,,,,,,,,,,,,,,,,,,,,,,,,,,,,,,,,,sub-037,41.8,41.0,42.7,COM3,2024-05-23_12h08.55.131,2024_RDpaindiscrimination_maintask,2023.2.3,59.989045986630124,2024-05-23 12h09.22.524816 -0400,
0,0,0,0,2,0,2,0,,,,,,,,,,,,,174.9922052999027,,,,,,,,174.97759799996857,179.97574659995735,179.9757533998927,179.9921778999269,192.0090861999197,191.9761554999277,2,inactive,41.8,191.97629659995437,197.09523360000458,77.9999999999998,5.1,,,,,,,,,,,,,,,,,,,,,,,,,,,,,,,,,,,,,,sub-037,41.8,41.0,42.7,COM3,2024-05-23_12h08.55.131,2024_RDpaindiscrimination_maintask,2023.2.3,59.989045986630124,2024-05-23 12h09.22.524816 -0400,
0,0,0,0,3,0,3,0,,,,,,,,,,,,,197.10905440000352,,,,,,,,197.09603259991854,202.0926084999228,202.09261639998294,202.1091040999163,214.12591699999757,214.0930423999671,3,active,41.0,214.0931847000029,217.62731409992557,36.00000000000012,3.515,,,,,,,,,,,,,,,,,,,,,,,,,,,,,,,,,,,,,,sub-037,41.8,41.0,42.7,COM3,2024-05-23_12h08.55.131,2024_RDpaindiscrimination_maintask,2023.2.3,59.989045986630124,2024-05-23 12h09.22.524816 -0400,
0,0,0,0,4,0,4,0,,,,,,,,,,,,,217.6425635999767,,,,,,,,217.62811779999174,222.62615739996545,222.62616409990005,222.64265309995972,234.65947600000072,234.62660859990865,0,inactive,41.8,234.6267559999833,237.81171539996285,67.50000000000004,3.166,,,,,,,,,,,,,,,,,,,,,,,,,,,,,,,,,,,,,,sub-037,41.8,41.0,42.7,COM3,2024-05-23_12h08.55.131,2024_RDpaindiscrimination_maintask,2023.2.3,59.989045986630124,2024-05-23 12h09.22.524816 -0400,
0,0,0,0,5,0,5,0,,,,,,,,,,,,,237.82618209999055,,,,,,,,237.8125651999144,242.80970069998875,242.80970749992412,242.8262038999237,254.84296899999026,254.81011609989218,1,active,41.0,254.81026779999956,256.7106196999084,20.0,1.881,,,,,,,,,,,,,,,,,,,,,,,,,,,,,,,,,,,,,,sub-037,41.8,41.0,42.7,COM3,2024-05-23_12h08.55.131,2024_RDpaindiscrimination_maintask,2023.2.3,59.989045986630124,2024-05-23 12h09.22.524816 -0400,
0,0,0,0,6,0,6,0,,,,,,,,,,,,,256.72625879989937,,,,,,,,256.7108877999708,261.709898400004,261.7099045999348,261.7263921999838,273.74317799997516,273.7103203999577,2,inactive,41.8,273.71046129998285,277.16145179991145,29.500000000000036,3.431,,,,,,,,,,,,,,,,,,,,,,,,,,,,,,,,,,,,,,sub-037,41.8,41.0,42.7,COM3,2024-05-23_12h08.55.131,2024_RDpaindiscrimination_maintask,2023.2.3,59.989045986630124,2024-05-23 12h09.22.524816 -0400,
0,0,0,0,7,0,7,0,,,,,,,,,,,,,277.17658389999997,,,,,,,,277.16170219995547,282.16010199999437,282.16010869992897,282.1766008998966,294.1933887999039,294.160443999921,3,inactive,41.8,294.16058249992784,297.82921249989886,68.49999999999991,3.65,,,,,,,,,,,,,,,,,,,,,,,,,,,,,,,,,,,,,,sub-037,41.8,41.0,42.7,COM3,2024-05-23_12h08.55.131,2024_RDpaindiscrimination_maintask,2023.2.3,59.989045986630124,2024-05-23 12h09.22.524816 -0400,
0,0,0,0,8,0,8,0,,,,,,,,,,,,,297.8433977999957,,,,,,,,297.8299887999892,302.82698309991974,302.82698979997076,302.8434759998927,314.8602613999974,314.8274534998927,0,active,41.0,314.8275960999308,318.8129221999552,43.99999999999992,3.967,,,,,,,,,,,,,,,,,,,,,,,,,,,,,,,,,,,,,,sub-037,41.8,41.0,42.7,COM3,2024-05-23_12h08.55.131,2024_RDpaindiscrimination_maintask,2023.2.3,59.989045986630124,2024-05-23 12h09.22.524816 -0400,
0,0,0,0,9,0,9,0,,,,,,,,,,,,,318.82697479997296,,,,,,,,318.81374709995,323.81054489989765,323.81055189995095,323.82699579990003,335.84386029990856,335.8109473999357,1,inactive,41.8,335.81109549989924,341.0970037999796,41.00000000000001,5.267,,,,,,,,,,,,,,,,,,,,,,,,,,,,,,,,,,,,,,sub-037,41.8,41.0,42.7,COM3,2024-05-23_12h08.55.131,2024_RDpaindiscrimination_maintask,2023.2.3,59.989045986630124,2024-05-23 12h09.22.524816 -0400,
0,0,0,0,10,0,10,0,,,,,,,,,,,,,341.11056239996105,,,,,,,,341.0978372999234,346.09410459990613,346.0941111999564,346.1106449998915,358.12733589997515,358.0944797999691,2,active,41.0,358.0946221998893,359.9958510999568,30.0,1.882,,,,,,,,,,,,,,,,,,,,,,,,,,,,,,,,,,,,,,sub-037,41.8,41.0,42.7,COM3,2024-05-23_12h08.55.131,2024_RDpaindiscrimination_maintask,2023.2.3,59.989045986630124,2024-05-23 12h09.22.524816 -0400,
0,0,0,0,11,0,11,0,,,,,,,,,,,,,360.0106262998888,,,,,,,,359.9961131999735,364.9942608999554,364.9942672000034,365.0107420999557,377.027550800005,376.994728099904,3,active,41.0,376.9948701999383,380.1974811999826,46.50000000000005,3.184,,,,,,,,,,,,,,,,,,,,,,,,,,,,,,,,,,,,,,sub-037,41.8,41.0,42.7,COM3,2024-05-23_12h08.55.131,2024_RDpaindiscrimination_maintask,2023.2.3,59.989045986630124,2024-05-23 12h09.22.524816 -0400,
0,0,0,0,12,0,12,0,,,,,,,,,,,,,380.21089339989703,,,,,,,,380.19827349996194,385.19461479992606,385.1946211999748,385.2109536998905,397.22782799997367,397.19491569988895,0,inactive,41.8,397.19505749992095,398.6796436998993,80.0,1.465,,,,,,,,,,,,,,,,,,,,,,,,,,,,,,,,,,,,,,sub-037,41.8,41.0,42.7,COM3,2024-05-23_12h08.55.131,2024_RDpaindiscrimination_maintask,2023.2.3,59.989045986630124,2024-05-23 12h09.22.524816 -0400,
0,0,0,0,13,0,13,0,,,,,,,,,,,,,398.69437079993077,,,,,,,,398.6798939999426,403.6779500999255,403.67795649997424,403.69447479990777,415.71122969989665,415.67841699998826,1,inactive,41.8,415.6785573998932,418.5462425999576,65.50000000000001,2.849,,,,,,,,,,,,,,,,,,,,,,,,,,,,,,,,,,,,,,sub-037,41.8,41.0,42.7,COM3,2024-05-23_12h08.55.131,2024_RDpaindiscrimination_maintask,2023.2.3,59.989045986630124,2024-05-23 12h09.22.524816 -0400,
0,0,0,0,14,0,14,0,,,,,,,,,,,,,418.5613819999853,,,,,,,,418.54699389997404,423.5449528999161,423.54495899996255,423.56139739998616,435.57818819989916,435.5453603999922,2,active,41.0,435.54550459992606,439.19672969996464,37.000000000000114,3.633,,,,,,,,,,,,,,,,,,,,,,,,,,,,,,,,,,,,,,sub-037,41.8,41.0,42.7,COM3,2024-05-23_12h08.55.131,2024_RDpaindiscrimination_maintask,2023.2.3,59.989045986630124,2024-05-23 12h09.22.524816 -0400,
0,0,0,0,15,0,15,0,,,,,,,,,,,,,439.21156939992215,,,,,,,,439.197526599979,444.19512169994414,444.19512809999287,444.21154999989085,456.2283481999766,456.19552729988936,3,inactive,41.8,456.1956687999191,460.44839149992913,65.49999999999984,4.234,,,,,,,,,,,,,,,,,,,,,,,,,,,,,,,,,,,,,,sub-037,41.8,41.0,42.7,COM3,2024-05-23_12h08.55.131,2024_RDpaindiscrimination_maintask,2023.2.3,59.989045986630124,2024-05-23 12h09.22.524816 -0400,
0,0,0,0,,,,,0,0,0,0,0,0,0,0,,,,,562.8295856999466,,,,,,556.2634507999755,562.8131793999346,,,,,,,0,inactive,41.8,579.8134759999812,585.0830349999014,49.4999999999999,5.251,460.44894379994366,460.46178989997134,556.2631140999729,562.8134723999538,567.8131066999631,567.8131185999373,567.8296290999278,579.8463432999561,579.8134675999172,,,,,,,,,,,,,,,,,,,,,,,,,,,,,sub-037,41.8,41.0,42.7,COM3,2024-05-23_12h08.55.131,2024_RDpaindiscrimination_maintask,2023.2.3,59.989045986630124,2024-05-23 12h09.22.524816 -0400,
0,0,0,0,,,,,0,0,0,0,1,0,1,0,,,,,585.0964324999368,,,,,,,,,,,,,,1,active,41.8,602.0803583998932,606.681316299946,21.000000000000078,4.582,,,,585.0838195999386,590.0799453998916,590.0799525999464,590.0964619999286,602.113300899975,602.0803512999555,,,,,,,,,,,,,,,,,,,,,,,,,,,,,sub-037,41.8,41.0,42.7,COM3,2024-05-23_12h08.55.131,2024_RDpaindiscrimination_maintask,2023.2.3,59.989045986630124,2024-05-23 12h09.22.524816 -0400,
0,0,0,0,,,,,0,0,0,0,,,,,0,0,0,0,616.4967344999313,,,,,,,,,,,,,,2,inactive,,,,,,,,,,,,,,,606.6818315999117,616.4804350999184,616.480733799981,621.480283599929,621.4802907999838,621.4967820999445,629.4802032998996,629.4802032998996,632.4468925999245,632.4803499999689,632.4803499999689,632.4638111999957,3.67,5.13,367,513,8,1.2,0.75,pic-present,1,n,0.9776913999812678,None,,,,,sub-037,41.8,41.0,42.7,COM3,2024-05-23_12h08.55.131,2024_RDpaindiscrimination_maintask,2023.2.3,59.989045986630124,2024-05-23 12h09.22.524816 -0400,
0,0,0,0,,,,,0,0,0,0,,,,,1,0,1,0,632.4803499999689,,,,,,,,,,,,,,3,inactive,,,,,,,,,,,,,,,,,632.4644399998942,637.4637816000031,637.4637886999408,637.48029029998,645.4637068999,645.4637068999,648.430405799998,648.4637401999207,648.4637401999207,648.447251799982,4.05,4.75,405,475,8,1.2,0.75,pic-present,1,n,0.9860814999556169,None,,,,,sub-037,41.8,41.0,42.7,COM3,2024-05-23_12h08.55.131,2024_RDpaindiscrimination_maintask,2023.2.3,59.989045986630124,2024-05-23 12h09.22.524816 -0400,
0,0,0,0,,,,,0,0,0,0,,,,,2,0,2,0,648.4637401999207,,,,,,,,,,,,,,0,active,,,,,,,,,,,,,,,,,648.4477560999803,653.447282899986,653.4472904999275,653.4638371999608,661.4472869999008,661.4472869999008,664.4139089999953,664.4472489999607,664.4472489999607,664.4308103999356,4.29,4.51,429,451,8,1.2,0.75,pic-absent,0,m,1.230825599981472,None,,,,,sub-037,41.8,41.0,42.7,COM3,2024-05-23_12h08.55.131,2024_RDpaindiscrimination_maintask,2023.2.3,59.989045986630124,2024-05-23 12h09.22.524816 -0400,
0,0,0,0,,,,,0,0,0,0,,,,,3,0,3,0,664.4472489999607,,,,,,,,,,,,,,1,inactive,,,,,,,,,,,,,,,,,664.4313141999301,669.430900999927,669.4309077999787,669.4472580999136,677.4307328999275,677.4307328999275,680.3974126999965,680.4308032999979,680.4308032999979,680.4142535999417,3.82,4.98,382,498,8,1.2,0.75,pic-present,1,n,0.9115657999645919,None,,,,,sub-037,41.8,41.0,42.7,COM3,2024-05-23_12h08.55.131,2024_RDpaindiscrimination_maintask,2023.2.3,59.989045986630124,2024-05-23 12h09.22.524816 -0400,
0,0,0,0,,,,,1,0,1,0,0,0,0,0,,,,,686.9474818999879,,,,,,680.4147401999217,686.9310739999637,,,,,,,2,active,41.8,703.9311112998985,708.0158296999289,52.999999999999886,4.066,,,,686.931401199894,691.9310266999528,691.9310332000023,691.9475291999988,,703.9311035999563,,,,,,,,,,,,,,,,,,,,,,,,,,,,,sub-037,41.8,41.0,42.7,COM3,2024-05-23_12h08.55.131,2024_RDpaindiscrimination_maintask,2023.2.3,59.989045986630124,2024-05-23 12h09.22.524816 -0400,
0,0,0,0,,,,,1,0,1,0,1,0,1,0,,,,,708.0310996999033,,,,,,,,,,,,,,3,inactive,41.8,725.0151014999719,728.6002309999894,27.49999999999997,3.566,,,,708.016553799971,713.0146384999389,713.0146460999968,713.0311559999827,725.0479664999293,725.0150943999179,,,,,,,,,,,,,,,,,,,,,,,,,,,,,sub-037,41.8,41.0,42.7,COM3,2024-05-23_12h08.55.131,2024_RDpaindiscrimination_maintask,2023.2.3,59.989045986630124,2024-05-23 12h09.22.524816 -0400,
0,0,0,0,,,,,1,0,1,0,,,,,0,0,0,0,732.0980434999801,,,,,,,,,,,,,,0,active,,,,,,,,,,,,,,,728.6007730999263,732.0816104999976,732.0819305999903,737.0815575999441,737.0815646999981,737.0980713999597,745.0814005999127,745.0814005999127,748.0481857999694,748.0815261999378,748.0815261999378,748.0650240998948,3.7,5.1,370,509,8,1.2,0.75,pic-present,0,m,0.960791299934499,None,,,,,sub-037,41.8,41.0,42.7,COM3,2024-05-23_12h08.55.131,2024_RDpaindiscrimination_maintask,2023.2.3,59.989045986630124,2024-05-23 12h09.22.524816 -0400,
0,0,0,0,,,,,1,0,1,0,,,,,1,0,1,0,748.0815261999378,,,,,,,,,,,,,,1,active,,,,,,,,,,,,,,,,,748.0655539999716,753.0651535999496,753.0651603000006,753.0816349999513,761.0649009998888,761.0649009998888,764.0315922999289,764.0650400999002,764.0650400999002,764.048449199996,3.89,4.91,389,491,8,1.2,0.75,pic-absent,0,m,0.6413171000313014,None,,,,,sub-037,41.8,41.0,42.7,COM3,2024-05-23_12h08.55.131,2024_RDpaindiscrimination_maintask,2023.2.3,59.989045986630124,2024-05-23 12h09.22.524816 -0400,
0,0,0,0,,,,,1,0,1,0,,,,,2,0,2,0,764.0650400999002,,,,,,,,,,,,,,2,inactive,,,,,,,,,,,,,,,,,764.0489311999409,769.0485706999898,769.0485778999282,769.0650756999385,777.0484242999228,777.0484242999228,780.0152226999635,780.0485591999022,780.0485591999022,780.0321096999105,4.73,4.07,473,407,8,1.2,0.75,pic-present,1,n,0.7457347000017762,None,,,,,sub-037,41.8,41.0,42.7,COM3,2024-05-23_12h08.55.131,2024_RDpaindiscrimination_maintask,2023.2.3,59.989045986630124,2024-05-23 12h09.22.524816 -0400,
0,0,0,0,,,,,1,0,1,0,,,,,3,0,3,0,780.0485591999022,,,,,,,,,,,,,,3,active,,,,,,,,,,,,,,,,,780.032605299959,785.0321133999387,785.0321212999988,785.0485989999725,793.032028799993,793.032028799993,795.9987408999586,796.0319563999074,796.0319563999074,796.0194742999738,4.06,4.74,405,474,8,1.2,0.75,pic-present,1,n,0.753603299963288,None,,,,,sub-037,41.8,41.0,42.7,COM3,2024-05-23_12h08.55.131,2024_RDpaindiscrimination_maintask,2023.2.3,59.989045986630124,2024-05-23 12h09.22.524816 -0400,
0,0,0,0,,,,,2,0,2,0,0,0,0,0,,,,,798.1320852999343,,,,,,796.0199896999402,798.1156859999755,,,,,,,0,active,41.8,815.1160414000042,817.9351996999467,33.50000000000009,2.8,,,,798.115983299911,803.1156428999966,803.1156493999297,803.1321430999087,815.1489279998932,815.1160333999433,,,,,,,,,,,,,,,,,,,,,,,,,,,,,sub-037,41.8,41.0,42.7,COM3,2024-05-23_12h08.55.131,2024_RDpaindiscrimination_maintask,2023.2.3,59.989045986630124,2024-05-23 12h09.22.524816 -0400,
0,0,0,0,,,,,2,0,2,0,1,0,1,0,,,,,817.9490447998978,,,,,,,,,,,,,,1,inactive,41.8,834.9327348999213,837.4509572999086,55.500000000000014,2.499,,,,817.9359615999274,822.9325166998897,822.9325232999399,822.9490151999053,834.9658140999964,834.9327269999776,,,,,,,,,,,,,,,,,,,,,,,,,,,,,sub-037,41.8,41.0,42.7,COM3,2024-05-23_12h08.55.131,2024_RDpaindiscrimination_maintask,2023.2.3,59.989045986630124,2024-05-23 12h09.22.524816 -0400,
0,0,0,0,,,,,2,0,2,0,,,,,0,0,0,0,839.1658611999592,,,,,,,,,,,,,,2,active,,,,,,,,,,,,,,,837.4515218999004,839.1494234999409,839.149730199948,844.1494083999423,844.1494156999979,844.1659138998948,852.1493005999364,852.1493005999364,855.1159428999526,855.14919799997,855.14919799997,855.1327174999751,4.46,4.34,446,434,8,1.2,0.75,pic-absent,1,n,0.9567638000007719,None,,,,,sub-037,41.8,41.0,42.7,COM3,2024-05-23_12h08.55.131,2024_RDpaindiscrimination_maintask,2023.2.3,59.989045986630124,2024-05-23 12h09.22.524816 -0400,
0,0,0,0,,,,,2,0,2,0,,,,,1,0,1,0,855.14919799997,,,,,,,,,,,,,,3,inactive,,,,,,,,,,,,,,,,,855.1332794999471,860.132748199976,860.1327549999114,860.1492527999217,868.1327463999623,868.1327463999623,871.0993808999192,871.1327093999134,871.1327093999134,871.1162300999276,3.33,5.47,333,547,8,1.2,0.75,pic-absent,1,n,0.8254881000611931,None,,,,,sub-037,41.8,41.0,42.7,COM3,2024-05-23_12h08.55.131,2024_RDpaindiscrimination_maintask,2023.2.3,59.989045986630124,2024-05-23 12h09.22.524816 -0400,
0,0,0,0,,,,,2,0,2,0,,,,,2,0,2,0,871.1327093999134,,,,,,,,,,,,,,0,active,,,,,,,,,,,,,,,,,871.1167210999411,876.1163291999837,876.1163361999206,876.132749899989,884.1161812999053,884.1161812999053,887.0829538999824,887.1162171999458,887.1162171999458,887.0997331999242,3.82,4.98,382,498,8,1.2,0.75,pic-present,1,n,0.8341175999958068,None,,,,,sub-037,41.8,41.0,42.7,COM3,2024-05-23_12h08.55.131,2024_RDpaindiscrimination_maintask,2023.2.3,59.989045986630124,2024-05-23 12h09.22.524816 -0400,
0,0,0,0,,,,,2,0,2,0,,,,,3,0,3,0,887.1162171999458,,,,,,,,,,,,,,1,inactive,,,,,,,,,,,,,,,,,887.1002335998928,892.0999802999431,892.099987900001,892.11630159989,900.0998405999271,900.0998405999271,903.0665677998913,903.0998386999127,903.0998386999127,903.0833472999511,3.26,5.54,326,554,8,1.2,0.75,pic-absent,0,m,1.1307588999625295,None,,,,,sub-037,41.8,41.0,42.7,COM3,2024-05-23_12h08.55.131,2024_RDpaindiscrimination_maintask,2023.2.3,59.989045986630124,2024-05-23 12h09.22.524816 -0400,
0,0,0,0,,,,,3,0,3,0,0,0,0,0,,,,,905.7165876999497,,,,,,903.0838605999015,905.7001818999415,,,,,,,2,inactive,41.8,922.7004260999383,926.7362525999779,47.50000000000004,4.017,,,,905.7005014999304,910.7001492999261,910.7001553999726,910.7166305999272,922.7333311999682,922.7004176999908,,,,,,,,,,,,,,,,,,,,,,,,,,,,,sub-037,41.8,41.0,42.7,COM3,2024-05-23_12h08.55.131,2024_RDpaindiscrimination_maintask,2023.2.3,59.989045986630124,2024-05-23 12h09.22.524816 -0400,
0,0,0,0,,,,,3,0,3,0,1,0,1,0,,,,,926.750128799933,,,,,,,,,,,,,,3,active,41.8,943.7340319999494,946.6535783999134,32.999999999999986,2.901,,,,926.7370099999243,931.7335857999278,931.7335928999819,931.7500910999952,943.7668834999204,943.7340244998923,,,,,,,,,,,,,,,,,,,,,,,,,,,,,sub-037,41.8,41.0,42.7,COM3,2024-05-23_12h08.55.131,2024_RDpaindiscrimination_maintask,2023.2.3,59.989045986630124,2024-05-23 12h09.22.524816 -0400,
0,0,0,0,,,,,3,0,3,0,,,,,0,0,0,0,951.5669746999629,,,,,,,,,,,,,,0,inactive,,,,,,,,,,,,,,,946.6541107998928,951.5507675999543,951.551094399998,956.5505441999994,956.5505505999317,956.5669969998999,964.5504087998997,964.5504087998997,967.517111999914,967.5505170999095,967.5505170999095,967.5339869000018,4.19,4.61,419,461,8,1.2,0.75,pic-absent,0,m,0.6635619000298902,None,,,,,sub-037,41.8,41.0,42.7,COM3,2024-05-23_12h08.55.131,2024_RDpaindiscrimination_maintask,2023.2.3,59.989045986630124,2024-05-23 12h09.22.524816 -0400,
0,0,0,0,,,,,3,0,3,0,,,,,1,0,1,0,967.5505170999095,,,,,,,,,,,,,,1,active,,,,,,,,,,,,,,,,,967.5345546999015,972.5340374999214,972.5340485998895,972.5505742999958,980.5340296999784,980.5340296999784,983.5006583998911,983.5340206999099,983.5340206999099,983.5175293999491,3.65,5.15,365,515,8,1.2,0.75,pic-present,0,m,1.7997038000030443,None,,,,,sub-037,41.8,41.0,42.7,COM3,2024-05-23_12h08.55.131,2024_RDpaindiscrimination_maintask,2023.2.3,59.989045986630124,2024-05-23 12h09.22.524816 -0400,
0,0,0,0,,,,,3,0,3,0,,,,,2,0,2,0,983.5340206999099,,,,,,,,,,,,,,2,inactive,,,,,,,,,,,,,,,,,983.5180344999535,988.5175778999692,988.5175853999099,988.5340682999231,996.5174827999435,996.5174827999435,999.4841883999761,999.5175229999004,999.5175229999004,999.5010909999255,3.86,4.94,386,494,8,1.2,0.75,pic-absent,1,n,0.7281526000006124,None,,,,,sub-037,41.8,41.0,42.7,COM3,2024-05-23_12h08.55.131,2024_RDpaindiscrimination_maintask,2023.2.3,59.989045986630124,2024-05-23 12h09.22.524816 -0400,
0,0,0,0,,,,,3,0,3,0,,,,,3,0,3,0,999.5175229999004,,,,,,,,,,,,,,3,active,,,,,,,,,,,,,,,,,999.5015504999319,1004.5010551000014,1004.5010620999383,1004.5175423999317,1012.5009994999273,1012.5009994999273,1015.4676906999666,1015.5009849999333,1015.5009849999333,1015.4845342999324,4.46,4.34,446,434,8,1.2,0.75,pic-absent,0,m,0.9251733999699354,None,,,,,sub-037,41.8,41.0,42.7,COM3,2024-05-23_12h08.55.131,2024_RDpaindiscrimination_maintask,2023.2.3,59.989045986630124,2024-05-23 12h09.22.524816 -0400,
1,0,1,0,0,0,0,0,,,,,,,,,,,,,1113.9353695999598,,,,1106.6856905999593,1109.3855981999077,1109.3856058999663,1113.9189788999502,1113.9193041999824,1118.9189223999856,1118.9189281999134,1118.9354233999038,1130.9521553999512,1130.919390499941,0,inactive,41.8,1130.919617599924,1134.5038244999014,67.49999999999987,3.562,,,,,,,,,,,,,,,,,,,,,,,,,,,,,,,,,,1015.48503719992,1106.6855413999874,,,sub-037,41.8,41.0,42.7,COM3,2024-05-23_12h08.55.131,2024_RDpaindiscrimination_maintask,2023.2.3,59.989045986630124,2024-05-23 12h09.22.524816 -0400,
1,0,1,0,1,0,1,0,,,,,,,,,,,,,1134.5190059999004,,,,,,,,1134.5047306999331,1139.5025113999145,1139.5025177999632,1139.519071299932,1151.5358925999608,1151.502980099991,1,inactive,41.8,1151.5031251999317,1155.3876365999458,57.999999999999865,3.866,,,,,,,,,,,,,,,,,,,,,,,,,,,,,,,,,,,,,,sub-037,41.8,41.0,42.7,COM3,2024-05-23_12h08.55.131,2024_RDpaindiscrimination_maintask,2023.2.3,59.989045986630124,2024-05-23 12h09.22.524816 -0400,
1,0,1,0,2,0,2,0,,,,,,,,,,,,,1155.402474100003,,,,,,,,1155.387849599938,1160.3861106999684,1160.386117399903,1160.402578499983,1172.419398500002,1172.3865748998942,2,active,41.0,1172.386718899943,1174.85589789995,50.499999999999964,2.45,,,,,,,,,,,,,,,,,,,,,,,,,,,,,,,,,,,,,,sub-037,41.8,41.0,42.7,COM3,2024-05-23_12h08.55.131,2024_RDpaindiscrimination_maintask,2023.2.3,59.989045986630124,2024-05-23 12h09.22.524816 -0400,
1,0,1,0,3,0,3,0,,,,,,,,,,,,,1174.86946419999,,,,,,,,1174.8567028999096,1179.852920699981,1179.8529270999134,1179.8694056998938,1191.8861674999353,1191.8533107999247,3,inactive,41.8,1191.8534558999818,1194.255572599941,60.500000000000036,2.383,,,,,,,,,,,,,,,,,,,,,,,,,,,,,,,,,,,,,,sub-037,41.8,41.0,42.7,COM3,2024-05-23_12h08.55.131,2024_RDpaindiscrimination_maintask,2023.2.3,59.989045986630124,2024-05-23 12h09.22.524816 -0400,
1,0,1,0,4,0,4,0,,,,,,,,,,,,,1194.269603899913,,,,,,,,1194.256310799974,1199.2530856999801,1199.253092299914,1199.2695792999584,1211.2864235999295,1211.2535136999795,0,active,41.0,1211.2536577999126,1214.805363799911,43.99999999999992,3.533,,,,,,,,,,,,,,,,,,,,,,,,,,,,,,,,,,,,,,sub-037,41.8,41.0,42.7,COM3,2024-05-23_12h08.55.131,2024_RDpaindiscrimination_maintask,2023.2.3,59.989045986630124,2024-05-23 12h09.22.524816 -0400,
1,0,1,0,5,0,5,0,,,,,,,,,,,,,1214.81980139995,,,,,,,,1214.8061405000044,1219.8033848999767,1219.8033915999113,1219.8197977999225,1231.8366749999113,1231.8038020998938,1,active,41.0,1231.8039522999898,1235.822153499932,22.50000000000007,3.999,,,,,,,,,,,,,,,,,,,,,,,,,,,,,,,,,,,,,,sub-037,41.8,41.0,42.7,COM3,2024-05-23_12h08.55.131,2024_RDpaindiscrimination_maintask,2023.2.3,59.989045986630124,2024-05-23 12h09.22.524816 -0400,
1,0,1,0,6,0,6,0,,,,,,,,,,,,,1235.8366602999158,,,,,,,,1235.8229566999944,1240.8201907000039,1240.8201980999438,1240.8366876998916,1252.8535731999436,1252.820631999988,2,inactive,41.8,1252.8207760999212,1257.1733702999773,63.499999999999915,4.333,,,,,,,,,,,,,,,,,,,,,,,,,,,,,,,,,,,,,,sub-037,41.8,41.0,42.7,COM3,2024-05-23_12h08.55.131,2024_RDpaindiscrimination_maintask,2023.2.3,59.989045986630124,2024-05-23 12h09.22.524816 -0400,
1,0,1,0,7,0,7,0,,,,,,,,,,,,,1257.1869885999477,,,,,,,,1257.1741671999916,1262.1705469998997,1262.1705533999484,1262.1870901999064,1274.2038000999019,1274.171068699914,3,active,41.0,1274.1712110999506,1278.1227670999942,63.999999999999844,3.933,,,,,,,,,,,,,,,,,,,,,,,,,,,,,,,,,,,,,,sub-037,41.8,41.0,42.7,COM3,2024-05-23_12h08.55.131,2024_RDpaindiscrimination_maintask,2023.2.3,59.989045986630124,2024-05-23 12h09.22.524816 -0400,
1,0,1,0,8,0,8,0,,,,,,,,,,,,,1278.1371932999464,,,,,,,,1278.1235746999737,1283.120717199985,1283.1207234999165,1283.1372180999024,1295.1540512999054,1295.1211481998907,0,inactive,41.8,1295.1212918999372,1299.3057780999225,35.000000000000156,4.165,,,,,,,,,,,,,,,,,,,,,,,,,,,,,,,,,,,,,,sub-037,41.8,41.0,42.7,COM3,2024-05-23_12h08.55.131,2024_RDpaindiscrimination_maintask,2023.2.3,59.989045986630124,2024-05-23 12h09.22.524816 -0400,
1,0,1,0,9,0,9,0,,,,,,,,,,,,,1299.3208214999177,,,,,,,,1299.3065443999367,1304.3043758999556,1304.3043816999998,1304.3206851999275,1316.3376154999714,1316.3047572999494,1,inactive,41.8,1316.304899299983,1319.840748699964,20.5,3.517,,,,,,,,,,,,,,,,,,,,,,,,,,,,,,,,,,,,,,sub-037,41.8,41.0,42.7,COM3,2024-05-23_12h08.55.131,2024_RDpaindiscrimination_maintask,2023.2.3,59.989045986630124,2024-05-23 12h09.22.524816 -0400,
1,0,1,0,10,0,10,0,,,,,,,,,,,,,1319.8543147000019,,,,,,,,1319.8415002999827,1324.837887499947,1324.8378932999913,1324.854366799933,1336.8712079999968,1336.8382941999007,2,active,41.0,1336.83844089997,1340.3401638999349,24.500000000000163,3.483,,,,,,,,,,,,,,,,,,,,,,,,,,,,,,,,,,,,,,sub-037,41.8,41.0,42.7,COM3,2024-05-23_12h08.55.131,2024_RDpaindiscrimination_maintask,2023.2.3,59.989045986630124,2024-05-23 12h09.22.524816 -0400,
1,0,1,0,11,0,11,0,,,,,,,,,,,,,1340.354498899891,,,,,,,,1340.3409714999143,1345.3381692999974,1345.3381752999267,1345.354577299906,1357.3713904999895,1357.3385279999347,3,inactive,41.8,1357.3386838999577,1360.3238253999734,45.49999999999994,2.966,,,,,,,,,,,,,,,,,,,,,,,,,,,,,,,,,,,,,,sub-037,41.8,41.0,42.7,COM3,2024-05-23_12h08.55.131,2024_RDpaindiscrimination_maintask,2023.2.3,59.989045986630124,2024-05-23 12h09.22.524816 -0400,
1,0,1,0,12,0,12,0,,,,,,,,,,,,,1360.3379563998897,,,,,,,,1360.324606899987,1365.32152509992,1365.3215320999734,1365.3380207999144,1377.4381465999177,1377.3219600999728,0,active,41.0,1377.322102899896,1381.2904995999997,21.000000000000032,3.861,,,,,,,,,,,,,,,,,,,,,,,,,,,,,,,,,,,,,,sub-037,41.8,41.0,42.7,COM3,2024-05-23_12h08.55.131,2024_RDpaindiscrimination_maintask,2023.2.3,59.989045986630124,2024-05-23 12h09.22.524816 -0400,
1,0,1,0,13,0,13,0,,,,,,,,,,,,,1381.3048613999272,,,,,,,,1381.2912982999114,1386.2884820000036,1386.2884901999496,1386.3049105999526,1398.3216960999416,1398.288867599913,1,active,41.0,1398.2890119999647,1401.3247039999114,10.000000000000098,3.017,,,,,,,,,,,,,,,,,,,,,,,,,,,,,,,,,,,,,,sub-037,41.8,41.0,42.7,COM3,2024-05-23_12h08.55.131,2024_RDpaindiscrimination_maintask,2023.2.3,59.989045986630124,2024-05-23 12h09.22.524816 -0400,
1,0,1,0,14,0,14,0,,,,,,,,,,,,,1401.3384023999097,,,,,,,,1401.3254886999493,1406.3219580999576,1406.3219645998906,1406.3384522999404,1418.3553002999397,1418.3223846999463,2,inactive,41.8,1418.3225304998923,1420.6737816999666,33.999999999999986,2.332,,,,,,,,,,,,,,,,,,,,,,,,,,,,,,,,,,,,,,sub-037,41.8,41.0,42.7,COM3,2024-05-23_12h08.55.131,2024_RDpaindiscrimination_maintask,2023.2.3,59.989045986630124,2024-05-23 12h09.22.524816 -0400,
1,0,1,0,15,0,15,0,,,,,,,,,,,,,1420.688643899979,,,,,,,,1420.6740313000046,1425.6721780999796,1425.6721850999165,1425.688684899942,1437.7055467999307,1437.6726921999361,3,active,41.0,1437.6728342999704,1441.1901429999853,30.500000000000107,3.498,,,,,,,,,,,,,,,,,,,,,,,,,,,,,,,,,,,,,,sub-037,41.8,41.0,42.7,COM3,2024-05-23_12h08.55.131,2024_RDpaindiscrimination_maintask,2023.2.3,59.989045986630124,2024-05-23 12h09.22.524816 -0400,
1,0,1,0,,,,,0,0,0,0,0,0,0,0,,,,,1465.8225518999388,,,,,,1462.3564381999895,1465.8062331998954,,,,,,,0,active,41.8,1482.8064983999357,1485.2583389999345,26.49999999999998,2.433,1441.1903363999445,1441.2056362999137,1462.3561192998895,1465.8065294999396,1470.8060117999557,1470.8060184998903,1470.8225191999227,1482.8393040999072,1482.8064900999889,,,,,,,,,,,,,,,,,,,,,,,,,,,,,sub-037,41.8,41.0,42.7,COM3,2024-05-23_12h08.55.131,2024_RDpaindiscrimination_maintask,2023.2.3,59.989045986630124,2024-05-23 12h09.22.524816 -0400,
1,0,1,0,,,,,0,0,0,0,1,0,1,0,,,,,1485.2727739999536,,,,,,,,,,,,,,1,inactive,41.8,1502.2566396999173,1504.708489599987,28.49999999999997,2.433,,,,1485.2585946999025,1490.2563328999095,1490.2563416999765,1490.2727210999,1502.2895621999633,1502.256631999975,,,,,,,,,,,,,,,,,,,,,,,,,,,,,sub-037,41.8,41.0,42.7,COM3,2024-05-23_12h08.55.131,2024_RDpaindiscrimination_maintask,2023.2.3,59.989045986630124,2024-05-23 12h09.22.524816 -0400,
1,0,1,0,,,,,0,0,0,0,,,,,0,0,0,0,1509.7062602998922,,,,,,,,,,,,,,2,inactive,,,,,,,,,,,,,,,1504.70909759996,1509.68992039992,1509.6902295999462,1514.6898028999567,1514.689809699892,1514.7063123999396,1522.6897292999784,1522.6897292999784,1525.6563971999567,1525.6897292999784,1525.6897292999784,1525.6733026999282,3.94,4.86,394,486,8,1.2,0.75,pic-absent,1,n,1.0991732000838965,None,,,,,sub-037,41.8,41.0,42.7,COM3,2024-05-23_12h08.55.131,2024_RDpaindiscrimination_maintask,2023.2.3,59.989045986630124,2024-05-23 12h09.22.524816 -0400,
1,0,1,0,,,,,0,0,0,0,,,,,1,0,1,0,1525.6897292999784,,,,,,,,,,,,,,3,active,,,,,,,,,,,,,,,,,1525.6738477000035,1530.6732771999668,1530.6732841999037,1530.689779899898,1538.6732786999783,1538.6732786999783,1541.63990249997,1541.673283199896,1541.673283199896,1541.6567477999488,3.96,4.84,396,484,8,1.2,0.75,pic-present,1,n,0.7795872000278905,None,,,,,sub-037,41.8,41.0,42.7,COM3,2024-05-23_12h08.55.131,2024_RDpaindiscrimination_maintask,2023.2.3,59.989045986630124,2024-05-23 12h09.22.524816 -0400,
1,0,1,0,,,,,0,0,0,0,,,,,2,0,2,0,1541.673283199896,,,,,,,,,,,,,,0,inactive,,,,,,,,,,,,,,,,,1541.6572348999325,1546.6567786999512,1546.6567858998897,1546.6733365999535,1554.6567456999328,1554.6567456999328,1557.6233972999034,1557.6567406998947,1557.6567406998947,1557.6402450999012,4.7,4.1,470,409,8,1.2,0.75,pic-present,1,n,0.7889488999499008,None,,,,,sub-037,41.8,41.0,42.7,COM3,2024-05-23_12h08.55.131,2024_RDpaindiscrimination_maintask,2023.2.3,59.989045986630124,2024-05-23 12h09.22.524816 -0400,
1,0,1,0,,,,,0,0,0,0,,,,,3,0,3,0,1557.6567406998947,,,,,,,,,,,,,,1,active,,,,,,,,,,,,,,,,,1557.6407502999064,1562.6402839999646,1562.6402916999068,1562.6568157000002,1570.6402826999547,1570.6402826999547,1573.6069425999885,1573.6402378999628,1573.6402378999628,1573.6237471998902,4.18,4.62,418,462,8,1.2,0.75,pic-absent,0,m,0.8933883000863716,None,,,,,sub-037,41.8,41.0,42.7,COM3,2024-05-23_12h08.55.131,2024_RDpaindiscrimination_maintask,2023.2.3,59.989045986630124,2024-05-23 12h09.22.524816 -0400,
1,0,1,0,,,,,1,0,1,0,0,0,0,0,,,,,1575.6235666999128,,,,,,1573.624255499919,1575.6072861999273,,,,,,,2,inactive,41.8,1592.6076144999824,1594.108871199889,80.0,1.483,,,,1575.6076238999376,1580.6071415999904,1580.6071477999212,1580.6236490999581,1592.640478999936,1592.6076067999238,,,,,,,,,,,,,,,,,,,,,,,,,,,,,sub-037,41.8,41.0,42.7,COM3,2024-05-23_12h08.55.131,2024_RDpaindiscrimination_maintask,2023.2.3,59.989045986630124,2024-05-23 12h09.22.524816 -0400,
1,0,1,0,,,,,1,0,1,0,1,0,1,0,,,,,1594.1238412999082,,,,,,,,,,,,,,3,active,41.8,1611.1078122999752,1613.5101772999624,52.999999999999986,2.383,,,,1594.1091349999188,1599.1073933999287,1599.107399599976,1599.1238914999412,1611.1406885999022,1611.1078046999173,,,,,,,,,,,,,,,,,,,,,,,,,,,,,sub-037,41.8,41.0,42.7,COM3,2024-05-23_12h08.55.131,2024_RDpaindiscrimination_maintask,2023.2.3,59.989045986630124,2024-05-23 12h09.22.524816 -0400,
1,0,1,0,,,,,1,0,1,0,,,,,0,0,0,0,1615.2240925999358,,,,,,,,,,,,,,0,active,,,,,,,,,,,,,,,1613.5106599999126,1615.2076429999433,1615.2079579998972,1620.2075865999795,1620.207593399915,1620.2241052999161,1628.207600499969,1628.207600499969,1631.1742797999177,1631.2075567999855,1631.2075567999855,1631.191051099915,4.47,4.33,447,433,8,1.2,0.75,pic-absent,0,m,0.949798500048928,None,,,,,sub-037,41.8,41.0,42.7,COM3,2024-05-23_12h08.55.131,2024_RDpaindiscrimination_maintask,2023.2.3,59.989045986630124,2024-05-23 12h09.22.524816 -0400,
1,0,1,0,,,,,1,0,1,0,,,,,1,0,1,0,1631.2075567999855,,,,,,,,,,,,,,1,inactive,,,,,,,,,,,,,,,,,1631.1915910999523,1636.1911491999635,1636.191155999899,1636.2076114999363,1644.1910996999359,1644.1910996999359,1647.157725899946,1647.1910978999222,1647.1910978999222,1647.1745836999035,4.59,4.21,459,421,8,1.2,0.75,pic-present,1,n,0.8664127999218181,None,,,,,sub-037,41.8,41.0,42.7,COM3,2024-05-23_12h08.55.131,2024_RDpaindiscrimination_maintask,2023.2.3,59.989045986630124,2024-05-23 12h09.22.524816 -0400,
1,0,1,0,,,,,1,0,1,0,,,,,2,0,2,0,1647.1910978999222,,,,,,,,,,,,,,2,inactive,,,,,,,,,,,,,,,,,1647.1750692999922,1652.1746852999786,1652.1746921999147,1652.191150699975,1660.1746044999454,1660.1746044999454,1663.141264099977,1663.1745305999648,1663.1745305999648,1663.1580369999865,3.85,4.95,385,495,8,1.2,0.75,pic-absent,1,n,1.9588037999346852,None,,,,,sub-037,41.8,41.0,42.7,COM3,2024-05-23_12h08.55.131,2024_RDpaindiscrimination_maintask,2023.2.3,59.989045986630124,2024-05-23 12h09.22.524816 -0400,
1,0,1,0,,,,,1,0,1,0,,,,,3,0,3,0,1663.1745305999648,,,,,,,,,,,,,,3,active,,,,,,,,,,,,,,,,,1663.1585188999306,1668.158107199939,1668.1581141999923,1668.1745691999095,1676.1579986999277,1676.1579986999277,1679.1247355999658,1679.1581927998923,1679.1581927998923,1679.1415509999497,3.97,4.83,397,483,8,1.2,0.75,pic-present,0,m,1.1667764999438077,None,,,,,sub-037,41.8,41.0,42.7,COM3,2024-05-23_12h08.55.131,2024_RDpaindiscrimination_maintask,2023.2.3,59.989045986630124,2024-05-23 12h09.22.524816 -0400,
1,0,1,0,,,,,2,0,2,0,0,0,0,0,,,,,1681.0413828999735,,,,,,1679.1420538999373,1681.025054299971,,,,,,,0,inactive,41.8,1698.0254783999408,1699.9605173999444,60.0,1.916,,,,1681.0253633999964,1686.025053099962,1686.025060899905,1686.0415482999524,1698.0583404999925,1698.0254699999932,,,,,,,,,,,,,,,,,,,,,,,,,,,,,sub-037,41.8,41.0,42.7,COM3,2024-05-23_12h08.55.131,2024_RDpaindiscrimination_maintask,2023.2.3,59.989045986630124,2024-05-23 12h09.22.524816 -0400,
1,0,1,0,,,,,2,0,2,0,1,0,1,0,,,,,1699.9749702999834,,,,,,,,,,,,,,1,active,41.8,1716.9589199000038,1722.1269173999317,45.999999999999986,5.149,,,,1699.960813599988,1704.958474199986,1704.9584812999237,1704.974989799899,1716.991771299974,1716.9589102999307,,,,,,,,,,,,,,,,,,,,,,,,,,,,,sub-037,41.8,41.0,42.7,COM3,2024-05-23_12h08.55.131,2024_RDpaindiscrimination_maintask,2023.2.3,59.989045986630124,2024-05-23 12h09.22.524816 -0400,
1,0,1,0,,,,,2,0,2,0,,,,,0,0,0,0,1724.3586833999725,,,,,,,,,,,,,,2,inactive,,,,,,,,,,,,,,,1722.1274766999995,1724.3423350999365,1724.3426569999428,1729.346074000001,1729.3460805999348,1729.3585386999184,1737.3420160999522,1737.3420160999522,1740.308680899907,1740.3420585999265,1740.3420585999265,1740.3255538999802,3.9,4.9,390,490,8,1.2,0.75,pic-present,1,n,0.7232530999463052,None,,,,,sub-037,41.8,41.0,42.7,COM3,2024-05-23_12h08.55.131,2024_RDpaindiscrimination_maintask,2023.2.3,59.989045986630124,2024-05-23 12h09.22.524816 -0400,
1,0,1,0,,,,,2,0,2,0,,,,,1,0,1,0,1740.3420585999265,,,,,,,,,,,,,,3,active,,,,,,,,,,,,,,,,,1740.326124599902,1745.3256250999402,1745.3256321999943,1745.3421708999667,1753.3256599999731,1753.3256599999731,1756.2922942999285,1756.325631899992,1756.325631899992,1756.3090724999784,3.75,5.05,375,505,8,1.2,0.75,pic-absent,0,m,1.0153187999967486,None,,,,,sub-037,41.8,41.0,42.7,COM3,2024-05-23_12h08.55.131,2024_RDpaindiscrimination_maintask,2023.2.3,59.989045986630124,2024-05-23 12h09.22.524816 -0400,
1,0,1,0,,,,,2,0,2,0,,,,,2,0,2,0,1756.325631899992,,,,,,,,,,,,,,0,active,,,,,,,,,,,,,,,,,1756.3095823999029,1761.3090963999275,1761.309104199987,1761.3256619999884,1769.309018699918,1769.309018699918,1772.2757395999506,1772.30905609997,1772.30905609997,1772.2925701999338,4.39,4.41,438,441,8,1.2,0.75,pic-absent,0,m,1.4478723999345675,None,,,,,sub-037,41.8,41.0,42.7,COM3,2024-05-23_12h08.55.131,2024_RDpaindiscrimination_maintask,2023.2.3,59.989045986630124,2024-05-23 12h09.22.524816 -0400,
1,0,1,0,,,,,2,0,2,0,,,,,3,0,3,0,1772.30905609997,,,,,,,,,,,,,,1,inactive,,,,,,,,,,,,,,,,,1772.2930439999327,1777.2926527999807,1777.2926594999153,1777.3091008999618,1785.2926226999843,1785.2926226999843,1788.259368799976,1788.292645999929,1788.292645999929,1788.2761533999583,3.75,5.05,375,505,8,1.2,0.75,pic-present,0,m,0.7965272000292316,None,,,,,sub-037,41.8,41.0,42.7,COM3,2024-05-23_12h08.55.131,2024_RDpaindiscrimination_maintask,2023.2.3,59.989045986630124,2024-05-23 12h09.22.524816 -0400,
1,0,1,0,,,,,3,0,3,0,0,0,0,0,,,,,1790.2093379999278,,,,,,1788.2766457999824,1790.1930122999474,,,,,,,2,active,41.8,1807.1931871999986,1809.245218899916,20.0,2.033,,,,1790.1933094999986,1795.1929175999248,1795.1929242999759,1795.2094090000028,1807.2261837999104,1807.1931788999354,,,,,,,,,,,,,,,,,,,,,,,,,,,,,sub-037,41.8,41.0,42.7,COM3,2024-05-23_12h08.55.131,2024_RDpaindiscrimination_maintask,2023.2.3,59.989045986630124,2024-05-23 12h09.22.524816 -0400,
1,0,1,0,,,,,3,0,3,0,1,0,1,0,,,,,1809.2595045999624,,,,,,,,,,,,,,3,inactive,41.8,1826.2434504999546,1829.5617655999959,52.5000000000001,3.299,,,,1809.2459792000009,1814.2430014999118,1814.2430081999628,1814.2595134999137,1826.276385199977,1826.2434426998952,,,,,,,,,,,,,,,,,,,,,,,,,,,,,sub-037,41.8,41.0,42.7,COM3,2024-05-23_12h08.55.131,2024_RDpaindiscrimination_maintask,2023.2.3,59.989045986630124,2024-05-23 12h09.22.524816 -0400,
1,0,1,0,,,,,3,0,3,0,,,,,0,0,0,0,1831.8597424000036,,,,,,,,,,,,,,0,active,,,,,,,,,,,,,,,1829.562269999995,1831.8432528999401,1831.8435605999548,1836.8431955999695,1836.8432023999048,1836.8597120998893,1844.84313449997,1844.84313449997,1847.8098231999902,1847.8431669999845,1847.8431669999845,1847.826679199934,3.28,5.52,328,552,8,1.2,0.75,pic-present,1,n,1.5376664000796154,None,,,,,sub-037,41.8,41.0,42.7,COM3,2024-05-23_12h08.55.131,2024_RDpaindiscrimination_maintask,2023.2.3,59.989045986630124,2024-05-23 12h09.22.524816 -0400,
1,0,1,0,,,,,3,0,3,0,,,,,1,0,1,0,1847.8431669999845,,,,,,,,,,,,,,1,inactive,,,,,,,,,,,,,,,,,1847.8272250998998,1852.8269140999764,1852.8269210999133,1852.8433378998889,1860.8267504998948,1860.8267504998948,1863.7934676998993,1863.8267080999212,1863.8267080999212,1863.810212399927,4.02,4.78,401,478,8,1.2,0.75,pic-absent,0,m,1.125874500023201,None,,,,,sub-037,41.8,41.0,42.7,COM3,2024-05-23_12h08.55.131,2024_RDpaindiscrimination_maintask,2023.2.3,59.989045986630124,2024-05-23 12h09.22.524816 -0400,
1,0,1,0,,,,,3,0,3,0,,,,,2,0,2,0,1863.8267080999212,,,,,,,,,,,,,,2,active,,,,,,,,,,,,,,,,,1863.8107143999077,1868.8104073998984,1868.810414299951,1868.8267988999141,1876.8101766000036,1876.8101766000036,1879.7768727999646,1879.810209899908,1879.810209899908,1879.7937261000043,3.59,5.21,359,521,8,1.2,0.75,pic-present,0,m,0.9945080999750644,None,,,,,sub-037,41.8,41.0,42.7,COM3,2024-05-23_12h08.55.131,2024_RDpaindiscrimination_maintask,2023.2.3,59.989045986630124,2024-05-23 12h09.22.524816 -0400,
1,0,1,0,,,,,3,0,3,0,,,,,3,0,3,0,1879.810209899908,,,,,,,,,,,,,,3,inactive,,,,,,,,,,,,,,,,,1879.7942389999516,1884.793747699936,1884.793755599996,1884.8102616999531,1892.7936806998914,1892.7936806998914,1895.7603884999407,1895.7936774999835,1895.7936774999835,1895.7773038999876,4.14,4.66,413,466,8,1.2,0.75,pic-absent,0,m,0.9588407999835908,None,,,,,sub-037,41.8,41.0,42.7,COM3,2024-05-23_12h08.55.131,2024_RDpaindiscrimination_maintask,2023.2.3,59.989045986630124,2024-05-23 12h09.22.524816 -0400,
,,,,,,,,,,,,,,,,,,,,,,,,,,,,,,,,,,,,,,,,,,,,,,,,,,,,,,,,,,,,,,,,,,,,,,,,,,1895.7777538999217,1903.1274832999334,1903.127503799973,1913.127361199935,,,,,,,,,,,
