trials.thisRepN,trials.thisTrialN,trials.thisN,trials.thisIndex,loop_test.thisRepN,loop_test.thisTrialN,loop_test.thisN,loop_test.thisIndex,loop_eval_discri.thisRepN,loop_eval_discri.thisTrialN,loop_eval_discri.thisN,loop_eval_discri.thisIndex,loop_eval.thisRepN,loop_eval.thisTrialN,loop_eval.thisN,loop_eval.thisIndex,loop_discri.thisRepN,loop_discri.thisTrialN,loop_discri.thisN,loop_discri.thisIndex,thisRow.t,notes,Set_up.started,Set_up.stopped,electrode_check.started,electrode_check.stopped,instructions_eval.started,instructions_eval.stopped,pause_5_test.started,pause_5_test.stopped,Phase_Test.started,thermode_locali.started,Phase_Test.stopped,loca_thermode,condition,temp_trial_sent,eval_douleur.started,eval_douleur.stopped,ratingScale.response,ratingScale.rt,thermode_locali.stopped,Fin_test.started,text.started,Fin_test.stopped,pause_5_EVA.started,pause_5_EVA.stopped,tâche_EVA.started,thermode_locali_EVA.started,thermode_locali_EVA.stopped,tâche_EVA.stopped,instructions_discrim.started,instructions_discrim.stopped,pause_5_pic.started,pause_5_pic.stopped,tâche_PIC.started,thermode_locali_pic.started,percu_or.started,responser.started,thermode_locali_pic.stopped,percu_or.stopped,responser.stopped,tâche_PIC.stopped,dur_plateau1,dur_plateau2,dur_plateau1_sent,dur_plateau2_sent,start_plateau_2_resp,dur_pic,dur_rise,pic_presence,pic_response,discrimin_resp.keys,discrimin_resp.rt,discrimin_resp.duration,break_entre_bloc.started,break_entre_bloc.stopped,merci.started,merci.stopped,participant,temp_flat,temp_active,temp_pic_set,com_thermode,date,expName,psychopyVersion,frameRate,expStart,
0,0,0,0,0,0,0,0,,,,,,,,,,,,,183.64881070004776,,0.013502000132575631,178.4157065001782,178.41610340005718,180.46571640018374,180.46572490013205,183.6157599000726,183.6160318001639,188.6321337001864,188.63213909999467,188.64886720012873,200.63235830003396,0,inactive,46.4,200.63258360000327,203.55106780002825,41.5000000000001,2.895,,,,,,,,,,,,,,,,,,,,,,,,,,,,,,,,,,,,,,,sub-040,46.4,42.9,47.3,COM3,2024-06-07_13h36.28.408,2024_RDpaindiscrimination_maintask,2023.2.3,60.00434429172307,2024-06-07 13h36.55.897133 -0400,
0,0,0,0,1,0,1,0,,,,,,,,,,,,,203.5657144000288,,,,,,,,203.55198550014757,208.54920430015773,208.54921060008928,208.56566270021722,220.54970890004188,1,active,42.9,220.54985750000924,224.18411740008742,19.50000000000007,3.615,220.58253100002185,,,,,,,,,,,,,,,,,,,,,,,,,,,,,,,,,,,,,,sub-040,46.4,42.9,47.3,COM3,2024-06-07_13h36.28.408,2024_RDpaindiscrimination_maintask,2023.2.3,60.00434429172307,2024-06-07 13h36.55.897133 -0400,
0,0,0,0,2,0,2,0,,,,,,,,,,,,,224.19919710000977,,,,,,,,224.18493590014987,229.1827314000111,229.18273750017397,229.19923960021697,241.1830988000147,2,active,42.9,241.18324180017225,246.11752660013735,22.50000000000017,4.914,241.21608860022388,,,,,,,,,,,,,,,,,,,,,,,,,,,,,,,,,,,,,,sub-040,46.4,42.9,47.3,COM3,2024-06-07_13h36.28.408,2024_RDpaindiscrimination_maintask,2023.2.3,60.00434429172307,2024-06-07 13h36.55.897133 -0400,
0,0,0,0,3,0,3,0,,,,,,,,,,,,,246.13279659999534,,,,,,,,246.11800470016897,251.1164033000823,251.11641350015998,251.13285510009155,263.1167774000205,3,inactive,46.4,263.1169148001354,266.1508918001782,45.50000000000005,3.015,263.1496308001224,,,,,,,,,,,,,,,,,,,,,,,,,,,,,,,,,,,,,,sub-040,46.4,42.9,47.3,COM3,2024-06-07_13h36.28.408,2024_RDpaindiscrimination_maintask,2023.2.3,60.00434429172307,2024-06-07 13h36.55.897133 -0400,
0,0,0,0,4,0,4,0,,,,,,,,,,,,,266.16633430006914,,,,,,,,266.1516664000228,271.149867300177,271.1498738001101,271.166390000144,283.15025080018677,0,active,42.9,283.1503888000734,287.20212290016934,24.500000000000064,4.032,283.1830585000571,,,,,,,,,,,,,,,,,,,,,,,,,,,,,,,,,,,,,,sub-040,46.4,42.9,47.3,COM3,2024-06-07_13h36.28.408,2024_RDpaindiscrimination_maintask,2023.2.3,60.00434429172307,2024-06-07 13h36.55.897133 -0400,
0,0,0,0,5,0,5,0,,,,,,,,,,,,,287.216492400039,,,,,,,,287.2029398002196,292.2000814001076,292.20008770003915,292.21658380003646,304.20050400006585,1,inactive,46.4,304.2006498000119,306.51943860016763,35.00000000000006,2.3,304.23337780009024,,,,,,,,,,,,,,,,,,,,,,,,,,,,,,,,,,,,,,sub-040,46.4,42.9,47.3,COM3,2024-06-07_13h36.28.408,2024_RDpaindiscrimination_maintask,2023.2.3,60.00434429172307,2024-06-07 13h36.55.897133 -0400,
0,0,0,0,6,0,6,0,,,,,,,,,,,,,306.53339160000905,,,,,,,,306.52055620006286,311.5169960001949,311.5170030000154,311.53341390006244,323.51734470017254,2,inactive,46.4,323.51748510007747,325.901835600147,45.99999999999998,2.365,323.5501529001631,,,,,,,,,,,,,,,,,,,,,,,,,,,,,,,,,,,,,,sub-040,46.4,42.9,47.3,COM3,2024-06-07_13h36.28.408,2024_RDpaindiscrimination_maintask,2023.2.3,60.00434429172307,2024-06-07 13h36.55.897133 -0400,
0,0,0,0,7,0,7,0,,,,,,,,,,,,,325.91693730000407,,,,,,,,325.9026478000451,330.9004851002246,330.90049140015617,330.9169179000892,342.90099880006164,3,active,42.9,342.9011400002055,345.46898250002414,12.500000000000028,2.549,342.9337790000718,,,,,,,,,,,,,,,,,,,,,,,,,,,,,,,,,,,,,,sub-040,46.4,42.9,47.3,COM3,2024-06-07_13h36.28.408,2024_RDpaindiscrimination_maintask,2023.2.3,60.00434429172307,2024-06-07 13h36.55.897133 -0400,
0,0,0,0,8,0,8,0,,,,,,,,,,,,,345.4837694000453,,,,,,,,345.46980060008354,350.46731530013494,350.4673219001852,350.4838219000958,362.46784120006487,0,active,42.9,362.46799030015245,364.8526510000229,15.999999999999996,2.365,362.5006900001317,,,,,,,,,,,,,,,,,,,,,,,,,,,,,,,,,,,,,,sub-040,46.4,42.9,47.3,COM3,2024-06-07_13h36.28.408,2024_RDpaindiscrimination_maintask,2023.2.3,60.00434429172307,2024-06-07 13h36.55.897133 -0400,
0,0,0,0,9,0,9,0,,,,,,,,,,,,,364.86738740000874,,,,,,,,364.85346820019186,369.85095510003157,369.8509623000864,369.8674382001627,381.85153090022504,1,inactive,46.4,381.8516872001346,385.169770100154,36.00000000000012,3.298,381.8842218001373,,,,,,,,,,,,,,,,,,,,,,,,,,,,,,,,,,,,,,sub-040,46.4,42.9,47.3,COM3,2024-06-07_13h36.28.408,2024_RDpaindiscrimination_maintask,2023.2.3,60.00434429172307,2024-06-07 13h36.55.897133 -0400,
0,0,0,0,10,0,10,0,,,,,,,,,,,,,385.18423220003024,,,,,,,,385.17052950011566,390.1677104001865,390.16771670011804,390.18418100010604,402.16821160004474,2,active,42.9,402.1683509000577,405.80288640013896,18.000000000000007,3.616,402.2011487002019,,,,,,,,,,,,,,,,,,,,,,,,,,,,,,,,,,,,,,sub-040,46.4,42.9,47.3,COM3,2024-06-07_13h36.28.408,2024_RDpaindiscrimination_maintask,2023.2.3,60.00434429172307,2024-06-07 13h36.55.897133 -0400,
0,0,0,0,11,0,11,0,,,,,,,,,,,,,405.8177242001984,,,,,,,,405.8036447002087,410.8012488000095,410.80125560006127,410.8178163000848,422.80174620007165,3,active,42.9,422.8018819000572,426.9712758001406,5.000000000000067,4.15,422.83453540015034,,,,,,,,,,,,,,,,,,,,,,,,,,,,,,,,,,,,,,sub-040,46.4,42.9,47.3,COM3,2024-06-07_13h36.28.408,2024_RDpaindiscrimination_maintask,2023.2.3,60.00434429172307,2024-06-07 13h36.55.897133 -0400,
0,0,0,0,12,0,12,0,,,,,,,,,,,,,426.9846702001523,,,,,,,,426.9720724001527,431.9681946001947,431.9682010000106,431.9847042001784,443.96879130019806,0,inactive,46.4,443.9689314002171,446.21982830017805,43.50000000000009,2.182,444.0515080001205,,,,,,,,,,,,,,,,,,,,,,,,,,,,,,,,,,,,,,sub-040,46.4,42.9,47.3,COM3,2024-06-07_13h36.28.408,2024_RDpaindiscrimination_maintask,2023.2.3,60.00434429172307,2024-06-07 13h36.55.897133 -0400,
0,0,0,0,13,0,13,0,,,,,,,,,,,,,446.23490320006385,,,,,,,,446.2200659001246,451.2183881001547,451.21839450020343,451.2348312002141,463.21876720013097,1,active,42.9,463.21890800003894,466.1698652000632,15.000000000000032,2.931,463.25167130003683,,,,,,,,,,,,,,,,,,,,,,,,,,,,,,,,,,,,,,sub-040,46.4,42.9,47.3,COM3,2024-06-07_13h36.28.408,2024_RDpaindiscrimination_maintask,2023.2.3,60.00434429172307,2024-06-07 13h36.55.897133 -0400,
0,0,0,0,14,0,14,0,,,,,,,,,,,,,466.18500690022483,,,,,,,,466.1706132001709,471.16852930001915,471.168535400182,471.18503500008956,483.16893190005794,2,inactive,46.4,483.16907190019265,485.8378317002207,30.500000000000142,2.649,483.2018627000507,,,,,,,,,,,,,,,,,,,,,,,,,,,,,,,,,,,,,,sub-040,46.4,42.9,47.3,COM3,2024-06-07_13h36.28.408,2024_RDpaindiscrimination_maintask,2023.2.3,60.00434429172307,2024-06-07 13h36.55.897133 -0400,
0,0,0,0,15,0,15,0,,,,,,,,,,,,,485.8519226000644,,,,,,,,485.83860590006225,490.83550670021214,490.83551330002956,490.8520259000361,502.8359045002144,3,inactive,46.4,502.83604350010864,505.2877449002117,46.00000000000012,2.433,502.86881110002287,,,,,,,,,,,,,,,,,,,,,,,,,,,,,,,,,,,,,,sub-040,46.4,42.9,47.3,COM3,2024-06-07_13h36.28.408,2024_RDpaindiscrimination_maintask,2023.2.3,60.00434429172307,2024-06-07 13h36.55.897133 -0400,
0,0,0,0,,,,,0,0,0,0,0,0,0,0,,,,,570.1028667001519,,,,,,566.6034474000335,570.0864663000684,,,,,,0,inactive,46.4,587.0867122001946,590.1383127002046,48.99999999999998,3.033,,505.2883386001922,505.3021895000711,566.6031033000909,570.0867539001629,575.0863819001243,575.0863889001776,575.102852600161,587.119707000209,587.0867034001276,,,,,,,,,,,,,,,,,,,,,,,,,,,,,sub-040,46.4,42.9,47.3,COM3,2024-06-07_13h36.28.408,2024_RDpaindiscrimination_maintask,2023.2.3,60.00434429172307,2024-06-07 13h36.55.897133 -0400,
0,0,0,0,,,,,0,0,0,0,1,0,1,0,,,,,590.1531335001346,,,,,,,,,,,,,1,active,46.4,607.1370097000618,610.5723463001195,33.000000000000036,3.417,,,,,590.139084600145,595.136636500014,595.1366431000642,595.1531214001589,607.1698596000206,607.1370024001226,,,,,,,,,,,,,,,,,,,,,,,,,,,,,sub-040,46.4,42.9,47.3,COM3,2024-06-07_13h36.28.408,2024_RDpaindiscrimination_maintask,2023.2.3,60.00434429172307,2024-06-07 13h36.55.897133 -0400,
0,0,0,0,,,,,0,0,0,0,,,,,0,0,0,0,613.0532550001517,,,,,,,,,,,,,2,active,,,,,,,,,,,,,,,,610.5729302000254,613.0368696001824,613.0371995000169,618.0367942000739,618.0368013000116,618.053481800016,626.0367670000996,626.0367670000996,629.0033896001987,629.0367239001207,629.0367239001207,629.0202447001357,3.51,5.29,351,529,8,1.2,0.75,pic-present,1,m,0.8839902000036091,None,,,,,sub-040,46.4,42.9,47.3,COM3,2024-06-07_13h36.28.408,2024_RDpaindiscrimination_maintask,2023.2.3,60.00434429172307,2024-06-07 13h36.55.897133 -0400,
0,0,0,0,,,,,0,0,0,0,,,,,1,0,1,0,629.0367239001207,,,,,,,,,,,,,3,inactive,,,,,,,,,,,,,,,,,,629.0208652000874,634.0203765002079,634.0203832001425,634.0368136002216,642.0202931000385,642.0202931000385,644.9869274999946,645.0202619000338,645.0202619000338,645.0038083000109,4.19,4.61,419,461,8,1.2,0.75,pic-absent,0,n,0.6603727999608964,None,,,,,sub-040,46.4,42.9,47.3,COM3,2024-06-07_13h36.28.408,2024_RDpaindiscrimination_maintask,2023.2.3,60.00434429172307,2024-06-07 13h36.55.897133 -0400,
0,0,0,0,,,,,0,0,0,0,,,,,2,0,2,0,645.0202619000338,,,,,,,,,,,,,0,active,,,,,,,,,,,,,,,,,,645.0042734001763,650.003793900134,650.0038009001873,650.0203117001802,658.0037629001308,658.0037629001308,660.9704277000856,661.0038161000703,661.0038161000703,660.987281100126,4.0,4.8,400,480,8,1.2,0.75,pic-present,1,m,0.6208907999098301,None,,,,,sub-040,46.4,42.9,47.3,COM3,2024-06-07_13h36.28.408,2024_RDpaindiscrimination_maintask,2023.2.3,60.00434429172307,2024-06-07 13h36.55.897133 -0400,
0,0,0,0,,,,,0,0,0,0,,,,,3,0,3,0,661.0038161000703,,,,,,,,,,,,,1,active,,,,,,,,,,,,,,,,,,660.9877541000023,665.9873085001018,665.9873155001551,666.00380950002,673.9872351000085,673.9872351000085,676.9538777000271,676.9872648001183,676.9872648001183,676.9707738000434,3.29,5.51,329,551,8,1.2,0.75,pic-absent,0,n,0.90930479997769,None,,,,,sub-040,46.4,42.9,47.3,COM3,2024-06-07_13h36.28.408,2024_RDpaindiscrimination_maintask,2023.2.3,60.00434429172307,2024-06-07 13h36.55.897133 -0400,
0,0,0,0,,,,,1,0,1,0,0,0,0,0,,,,,678.6540297002066,,,,,,676.9712922000326,678.6375290001743,,,,,,2,active,46.4,695.6378081000876,700.0064802002162,31.999999999999957,4.35,,,,,678.6377953002229,683.6374946001451,683.6375018002,683.6540024999995,695.6707939000335,695.6377973000053,,,,,,,,,,,,,,,,,,,,,,,,,,,,,sub-040,46.4,42.9,47.3,COM3,2024-06-07_13h36.28.408,2024_RDpaindiscrimination_maintask,2023.2.3,60.00434429172307,2024-06-07 13h36.55.897133 -0400,
0,0,0,0,,,,,1,0,1,0,1,0,1,0,,,,,700.0208982001059,,,,,,,,,,,,,3,inactive,46.4,717.0048833000474,723.2057066000998,39.50000000000007,6.182,,,,,700.0067167000379,705.0044398000464,705.0044463002123,705.0208688999992,717.0377498001326,717.0048755002208,,,,,,,,,,,,,,,,,,,,,,,,,,,,,sub-040,46.4,42.9,47.3,COM3,2024-06-07_13h36.28.408,2024_RDpaindiscrimination_maintask,2023.2.3,60.00434429172307,2024-06-07 13h36.55.897133 -0400,
0,0,0,0,,,,,1,0,1,0,,,,,0,0,0,0,726.421174300136,,,,,,,,,,,,,0,inactive,,,,,,,,,,,,,,,,723.2061950000934,726.4047798002139,726.4051059000194,731.4047316000797,731.4047384001315,731.4211935000494,739.4045609000605,739.4045609000605,742.3713437002152,742.4046762001235,742.4046762001235,742.3881864000577,3.52,5.28,352,528,8,1.2,0.75,pic-absent,1,m,1.6113993001636118,None,,,,,sub-040,46.4,42.9,47.3,COM3,2024-06-07_13h36.28.408,2024_RDpaindiscrimination_maintask,2023.2.3,60.00434429172307,2024-06-07 13h36.55.897133 -0400,
0,0,0,0,,,,,1,0,1,0,,,,,1,0,1,0,742.4046762001235,,,,,,,,,,,,,1,active,,,,,,,,,,,,,,,,,,742.388722800184,747.3882272001356,747.3882349000778,747.4047250000294,755.3881499001291,755.3881499001291,758.3548497001175,758.3882184000686,758.3882184000686,758.3716897000559,4.13,4.67,413,467,8,1.2,0.75,pic-present,1,m,1.9962208000943065,None,,,,,sub-040,46.4,42.9,47.3,COM3,2024-06-07_13h36.28.408,2024_RDpaindiscrimination_maintask,2023.2.3,60.00434429172307,2024-06-07 13h36.55.897133 -0400,
0,0,0,0,,,,,1,0,1,0,,,,,2,0,2,0,758.3882184000686,,,,,,,,,,,,,2,active,,,,,,,,,,,,,,,,,,758.3721417000052,763.3717384000774,763.3717455000151,763.3882251000032,771.3716481002048,771.3716481002048,774.3383983001113,774.3716862001456,774.3716862001456,774.3551840002183,4.74,4.06,474,405,8,1.2,0.75,pic-absent,0,n,0.5450664001982659,None,,,,,sub-040,46.4,42.9,47.3,COM3,2024-06-07_13h36.28.408,2024_RDpaindiscrimination_maintask,2023.2.3,60.00434429172307,2024-06-07 13h36.55.897133 -0400,
0,0,0,0,,,,,1,0,1,0,,,,,3,0,3,0,774.3716862001456,,,,,,,,,,,,,3,inactive,,,,,,,,,,,,,,,,,,774.3556443001144,779.3552779001184,779.3552845001686,779.37176800007,787.3551894000266,787.3551894000266,790.3218936000485,790.3552087000571,790.3552087000571,790.3387423001695,3.92,4.88,392,488,8,1.2,0.75,pic-present,1,m,0.5094368001446128,None,,,,,sub-040,46.4,42.9,47.3,COM3,2024-06-07_13h36.28.408,2024_RDpaindiscrimination_maintask,2023.2.3,60.00434429172307,2024-06-07 13h36.55.897133 -0400,
0,0,0,0,,,,,2,0,2,0,0,0,0,0,,,,,793.0052043001633,,,,,,790.3392152001616,792.9888177001849,,,,,,0,inactive,46.4,809.9893538001925,812.1907054001931,52.49999999999992,2.183,,,,,792.9891382001806,797.9887939000037,797.9888005000539,798.005268300185,810.0221037000883,809.9893455000129,,,,,,,,,,,,,,,,,,,,,,,,,,,,,sub-040,46.4,42.9,47.3,COM3,2024-06-07_13h36.28.408,2024_RDpaindiscrimination_maintask,2023.2.3,60.00434429172307,2024-06-07 13h36.55.897133 -0400,
0,0,0,0,,,,,2,0,2,0,1,0,1,0,,,,,812.205456300173,,,,,,,,,,,,,1,active,46.4,829.1894169000443,831.139877700014,45.00000000000006,1.931,,,,,812.1914572000969,817.1890070000663,817.1890136001166,817.2055644001812,829.222299200017,829.1894091002177,,,,,,,,,,,,,,,,,,,,,,,,,,,,,sub-040,46.4,42.9,47.3,COM3,2024-06-07_13h36.28.408,2024_RDpaindiscrimination_maintask,2023.2.3,60.00434429172307,2024-06-07 13h36.55.897133 -0400,
0,0,0,0,,,,,2,0,2,0,,,,,0,0,0,0,831.6723424000666,,,,,,,,,,,,,2,inactive,,,,,,,,,,,,,,,,831.1400813001674,831.6559606001247,831.6562702001538,836.655832500197,836.6558441000525,836.6723386000376,844.6557980000507,844.6557980000507,847.6224330000114,847.6557114000898,847.6557114000898,847.6392222000286,3.41,5.39,341,539,8,1.2,0.75,pic-present,0,n,0.7206421999726444,None,,,,,sub-040,46.4,42.9,47.3,COM3,2024-06-07_13h36.28.408,2024_RDpaindiscrimination_maintask,2023.2.3,60.00434429172307,2024-06-07 13h36.55.897133 -0400,
0,0,0,0,,,,,2,0,2,0,,,,,1,0,1,0,847.6557114000898,,,,,,,,,,,,,3,active,,,,,,,,,,,,,,,,,,847.6397557000164,852.6393694002181,852.6393762000371,852.6558868000284,860.6391814001836,860.6391814001836,863.6059813001193,863.6392133000772,863.6392133000772,863.622728300048,4.19,4.61,419,461,8,1.2,0.75,pic-absent,1,m,0.6851809001527727,None,,,,,sub-040,46.4,42.9,47.3,COM3,2024-06-07_13h36.28.408,2024_RDpaindiscrimination_maintask,2023.2.3,60.00434429172307,2024-06-07 13h36.55.897133 -0400,
0,0,0,0,,,,,2,0,2,0,,,,,2,0,2,0,863.6392133000772,,,,,,,,,,,,,0,inactive,,,,,,,,,,,,,,,,,,863.6232222002,868.6229349002242,868.6229414001573,868.6393480000552,876.6227686000057,876.6227686000057,879.589349700138,879.6227041000966,879.6227041000966,879.6061941001099,4.71,4.09,471,409,8,1.2,0.75,pic-present,1,m,0.5972029999829829,None,,,,,sub-040,46.4,42.9,47.3,COM3,2024-06-07_13h36.28.408,2024_RDpaindiscrimination_maintask,2023.2.3,60.00434429172307,2024-06-07 13h36.55.897133 -0400,
0,0,0,0,,,,,2,0,2,0,,,,,3,0,3,0,879.6227041000966,,,,,,,,,,,,,1,inactive,,,,,,,,,,,,,,,,,,879.6066744001582,884.606230400037,884.606237300206,884.6227308001835,892.6061510001309,892.6061510001309,895.5728950002231,895.6063053000253,895.6063053000253,895.5898555000313,4.32,4.48,432,448,8,1.2,0.75,pic-absent,0,n,1.1178117999807,None,,,,,sub-040,46.4,42.9,47.3,COM3,2024-06-07_13h36.28.408,2024_RDpaindiscrimination_maintask,2023.2.3,60.00434429172307,2024-06-07 13h36.55.897133 -0400,
0,0,0,0,,,,,3,0,3,0,0,0,0,0,,,,,896.4896846001502,,,,,,895.5903621001635,896.4732929000165,,,,,,2,active,46.4,913.4736503001768,917.3414575001225,30.000000000000043,3.849,,,,,896.4735869001597,901.4731956000905,901.4732029000297,901.489720800193,913.5065256000962,913.4736421999987,,,,,,,,,,,,,,,,,,,,,,,,,,,,,sub-040,46.4,42.9,47.3,COM3,2024-06-07_13h36.28.408,2024_RDpaindiscrimination_maintask,2023.2.3,60.00434429172307,2024-06-07 13h36.55.897133 -0400,
0,0,0,0,,,,,3,0,3,0,1,0,1,0,,,,,917.3565145002212,,,,,,,,,,,,,3,inactive,46.4,934.3404342001304,937.4578949999996,24.000000000000092,3.099,,,,,917.3421927001327,922.3400441000704,922.340051200008,922.3565089001786,934.3733030001167,934.3404263001867,,,,,,,,,,,,,,,,,,,,,,,,,,,,,sub-040,46.4,42.9,47.3,COM3,2024-06-07_13h36.28.408,2024_RDpaindiscrimination_maintask,2023.2.3,60.00434429172307,2024-06-07 13h36.55.897133 -0400,
0,0,0,0,,,,,3,0,3,0,,,,,0,0,0,0,938.7067271000706,,,,,,,,,,,,,0,active,,,,,,,,,,,,,,,,937.4580942001194,938.690343900118,938.6906619002111,943.690248100087,943.6902547001373,943.70677420008,951.6901812001597,951.6901812001597,954.6569915001746,954.6903334001545,954.6903334001545,954.6738925999962,3.72,5.08,372,508,8,1.2,0.75,pic-absent,1,m,0.7938127999659628,None,,,,,sub-040,46.4,42.9,47.3,COM3,2024-06-07_13h36.28.408,2024_RDpaindiscrimination_maintask,2023.2.3,60.00434429172307,2024-06-07 13h36.55.897133 -0400,
0,0,0,0,,,,,3,0,3,0,,,,,1,0,1,0,954.6903334001545,,,,,,,,,,,,,1,inactive,,,,,,,,,,,,,,,,,,954.6744169001468,959.673769300105,959.6737809001934,959.6902709000278,967.6736864000559,967.6736864000559,970.6403871001676,970.6737248999998,970.6737248999998,970.6572313001379,3.92,4.88,392,488,8,1.2,0.75,pic-present,1,m,0.5668343000579625,None,,,,,sub-040,46.4,42.9,47.3,COM3,2024-06-07_13h36.28.408,2024_RDpaindiscrimination_maintask,2023.2.3,60.00434429172307,2024-06-07 13h36.55.897133 -0400,
0,0,0,0,,,,,3,0,3,0,,,,,2,0,2,0,970.6737248999998,,,,,,,,,,,,,2,inactive,,,,,,,,,,,,,,,,,,970.6577369000297,975.6572486001533,975.6572558002081,975.6737836000975,983.6572326000314,983.6572326000314,986.6239295001142,986.6572564002126,986.6572564002126,986.640728100203,3.3,5.5,330,550,8,1.2,0.75,pic-absent,0,n,0.6192301998380572,None,,,,,sub-040,46.4,42.9,47.3,COM3,2024-06-07_13h36.28.408,2024_RDpaindiscrimination_maintask,2023.2.3,60.00434429172307,2024-06-07 13h36.55.897133 -0400,
0,0,0,0,,,,,3,0,3,0,,,,,3,0,3,0,986.6572564002126,,,,,,,,,,,,,3,active,,,,,,,,,,,,,,,,,,986.6411832000595,991.6407615002245,991.6407684001606,991.6573164002039,999.6407266000751,999.6407266000751,1002.607440700056,1002.6406691002194,1002.6406691002194,1002.6243057001848,3.58,5.22,358,522,8,1.2,0.75,pic-present,0,n,0.8630641000345349,None,,,,,sub-040,46.4,42.9,47.3,COM3,2024-06-07_13h36.28.408,2024_RDpaindiscrimination_maintask,2023.2.3,60.00434429172307,2024-06-07 13h36.55.897133 -0400,
1,0,1,0,0,0,0,0,,,,,,,,,,,,,1061.5246903002262,,,,1059.2918009001296,1060.2749088001437,1060.2749157000799,1061.5083281002007,1061.508621300105,1066.508254900109,1066.5082612000406,1066.524744000053,1078.5087445001118,0,inactive,46.4,1078.5089634000324,1081.976673600031,42.0,3.445,1078.5415079002269,,,,,,,,,,,,,,,,,,,,,,,,,,,,,,,,,,1002.6247388001066,1059.2916580000892,,,sub-040,46.4,42.9,47.3,COM3,2024-06-07_13h36.28.408,2024_RDpaindiscrimination_maintask,2023.2.3,60.00434429172307,2024-06-07 13h36.55.897133 -0400,
1,0,1,0,1,0,1,0,,,,,,,,,,,,,1081.9916368999984,,,,,,,,1081.977582400199,1086.975206000032,1086.9752125001978,1086.991660100175,1098.975619800156,1,active,42.9,1098.975767099997,1101.30999660003,14.500000000000004,2.315,1099.008460600162,,,,,,,,,,,,,,,,,,,,,,,,,,,,,,,,,,,,,,sub-040,46.4,42.9,47.3,COM3,2024-06-07_13h36.28.408,2024_RDpaindiscrimination_maintask,2023.2.3,60.00434429172307,2024-06-07 13h36.55.897133 -0400,
1,0,1,0,2,0,2,0,,,,,,,,,,,,,1101.3251676000655,,,,,,,,1101.3103700000793,1106.30872680014,1106.3087331000715,1106.3251746001188,1118.3090804000385,2,inactive,46.4,1118.3092229000758,1120.5614263000898,44.50000000000009,2.233,1118.3419595002197,,,,,,,,,,,,,,,,,,,,,,,,,,,,,,,,,,,,,,sub-040,46.4,42.9,47.3,COM3,2024-06-07_13h36.28.408,2024_RDpaindiscrimination_maintask,2023.2.3,60.00434429172307,2024-06-07 13h36.55.897133 -0400,
1,0,1,0,3,0,3,0,,,,,,,,,,,,,1120.575398400193,,,,,,,,1120.5621904002037,1125.5590189001523,1125.5590267002117,1125.57538880012,1137.5593421000522,3,active,42.9,1137.559490900021,1139.5781502001919,14.000000000000004,2.0,1137.592229400063,,,,,,,,,,,,,,,,,,,,,,,,,,,,,,,,,,,,,,sub-040,46.4,42.9,47.3,COM3,2024-06-07_13h36.28.408,2024_RDpaindiscrimination_maintask,2023.2.3,60.00434429172307,2024-06-07 13h36.55.897133 -0400,
1,0,1,0,4,0,4,0,,,,,,,,,,,,,1139.5922286000568,,,,,,,,1139.5789664001204,1144.5757446000353,1144.5757511002012,1144.5922427000478,1156.5762557000853,0,inactive,46.4,1156.5763990001287,1159.594319100026,52.99999999999989,2.999,1156.6090675001033,,,,,,,,,,,,,,,,,,,,,,,,,,,,,,,,,,,,,,sub-040,46.4,42.9,47.3,COM3,2024-06-07_13h36.28.408,2024_RDpaindiscrimination_maintask,2023.2.3,60.00434429172307,2024-06-07 13h36.55.897133 -0400,
1,0,1,0,5,0,5,0,,,,,,,,,,,,,1159.6090661000926,,,,,,,,1159.595101900166,1164.592663400108,1164.5926703000441,1164.609123900067,1176.593228300102,1,active,42.9,1176.5933731000405,1178.4612882002257,5.4999999999999964,1.849,1176.626016800059,,,,,,,,,,,,,,,,,,,,,,,,,,,,,,,,,,,,,,sub-040,46.4,42.9,47.3,COM3,2024-06-07_13h36.28.408,2024_RDpaindiscrimination_maintask,2023.2.3,60.00434429172307,2024-06-07 13h36.55.897133 -0400,
1,0,1,0,6,0,6,0,,,,,,,,,,,,,1178.4760176001582,,,,,,,,1178.462060400052,1183.4594732001424,1183.4594797000755,1183.476029700134,1195.4598965002224,2,inactive,46.4,1195.4600537000224,1197.0440731002018,35.49999999999998,1.565,1195.49274100014,,,,,,,,,,,,,,,,,,,,,,,,,,,,,,,,,,,,,,sub-040,46.4,42.9,47.3,COM3,2024-06-07_13h36.28.408,2024_RDpaindiscrimination_maintask,2023.2.3,60.00434429172307,2024-06-07 13h36.55.897133 -0400,
1,0,1,0,7,0,7,0,,,,,,,,,,,,,1197.059504300123,,,,,,,,1197.0445222000126,1202.043097200105,1202.0431039000396,1202.0595828001387,1214.043627800187,3,inactive,46.4,1214.0437756001484,1216.6625109000597,40.99999999999993,2.6,1214.07638040022,,,,,,,,,,,,,,,,,,,,,,,,,,,,,,,,,,,,,,sub-040,46.4,42.9,47.3,COM3,2024-06-07_13h36.28.408,2024_RDpaindiscrimination_maintask,2023.2.3,60.00434429172307,2024-06-07 13h36.55.897133 -0400,
1,0,1,0,8,0,8,0,,,,,,,,,,,,,1216.676412800094,,,,,,,,1216.6633135001175,1221.6598601001315,1221.6598665001802,1221.676358200144,1233.66028010007,0,active,42.9,1233.6604245000053,1237.561711900169,5.50000000000013,3.882,1233.6931547001004,,,,,,,,,,,,,,,,,,,,,,,,,,,,,,,,,,,,,,sub-040,46.4,42.9,47.3,COM3,2024-06-07_13h36.28.408,2024_RDpaindiscrimination_maintask,2023.2.3,60.00434429172307,2024-06-07 13h36.55.897133 -0400,
1,0,1,0,9,0,9,0,,,,,,,,,,,,,1237.5765416000504,,,,,,,,1237.5625091001857,1242.5600847001188,1242.560091700172,1242.5766600000206,1254.5606445001904,1,inactive,46.4,1254.5607935001608,1257.3288635001518,46.999999999999915,2.749,1254.5934731001034,,,,,,,,,,,,,,,,,,,,,,,,,,,,,,,,,,,,,,sub-040,46.4,42.9,47.3,COM3,2024-06-07_13h36.28.408,2024_RDpaindiscrimination_maintask,2023.2.3,60.00434429172307,2024-06-07 13h36.55.897133 -0400,
1,0,1,0,10,0,10,0,,,,,,,,,,,,,1257.3435185002163,,,,,,,,1257.3296072001103,1262.327081600204,1262.3270889001433,1262.3435941000935,1274.327539200196,2,active,42.9,1274.3276818001177,1278.746549300151,15.500000000000076,4.399,1274.3603722001426,,,,,,,,,,,,,,,,,,,,,,,,,,,,,,,,,,,,,,sub-040,46.4,42.9,47.3,COM3,2024-06-07_13h36.28.408,2024_RDpaindiscrimination_maintask,2023.2.3,60.00434429172307,2024-06-07 13h36.55.897133 -0400,
1,0,1,0,11,0,11,0,,,,,,,,,,,,,1278.7604523000773,,,,,,,,1278.7473326001782,1283.7440065001138,1283.7440129001625,1283.7604689002037,1295.744521100074,3,inactive,46.4,1295.744669600157,1298.5630650001112,39.00000000000014,2.799,1295.7771816002205,,,,,,,,,,,,,,,,,,,,,,,,,,,,,,,,,,,,,,sub-040,46.4,42.9,47.3,COM3,2024-06-07_13h36.28.408,2024_RDpaindiscrimination_maintask,2023.2.3,60.00434429172307,2024-06-07 13h36.55.897133 -0400,
1,0,1,0,12,0,12,0,,,,,,,,,,,,,1298.5772999001201,,,,,,,,1298.563886300195,1303.5608626001049,1303.5608689000364,1303.577355600195,1315.5613097001333,0,active,42.9,1315.5614525000565,1319.9302893001586,11.000000000000071,4.349,1315.5941454002168,,,,,,,,,,,,,,,,,,,,,,,,,,,,,,,,,,,,,,sub-040,46.4,42.9,47.3,COM3,2024-06-07_13h36.28.408,2024_RDpaindiscrimination_maintask,2023.2.3,60.00434429172307,2024-06-07 13h36.55.897133 -0400,
1,0,1,0,13,0,13,0,,,,,,,,,,,,,1319.944103400223,,,,,,,,1319.9311045000795,1324.9276697000023,1324.927680700086,1324.9441539000254,1336.9281461001374,1,inactive,46.4,1336.9282893000636,1339.7463220001664,31.499999999999957,2.799,1336.961042500101,,,,,,,,,,,,,,,,,,,,,,,,,,,,,,,,,,,,,,sub-040,46.4,42.9,47.3,COM3,2024-06-07_13h36.28.408,2024_RDpaindiscrimination_maintask,2023.2.3,60.00434429172307,2024-06-07 13h36.55.897133 -0400,
1,0,1,0,14,0,14,0,,,,,,,,,,,,,1339.7610637000762,,,,,,,,1339.7470827000216,1344.744525300106,1344.7445321001578,1344.7610051000956,1356.7450694001745,2,active,42.9,1356.74522300018,1358.381528600119,10.0,1.617,1356.7779181001242,,,,,,,,,,,,,,,,,,,,,,,,,,,,,,,,,,,,,,sub-040,46.4,42.9,47.3,COM3,2024-06-07_13h36.28.408,2024_RDpaindiscrimination_maintask,2023.2.3,60.00434429172307,2024-06-07 13h36.55.897133 -0400,
1,0,1,0,15,0,15,0,,,,,,,,,,,,,1358.3945619000588,,,,,,,,1358.3823672002181,1363.378036700189,1363.3780434001237,1363.3945298001636,1375.378451100085,3,active,42.9,1375.3786058002152,1383.0801627000328,13.000000000000075,7.682,1375.4113279001322,,,,,,,,,,,,,,,,,,,,,,,,,,,,,,,,,,,,,,sub-040,46.4,42.9,47.3,COM3,2024-06-07_13h36.28.408,2024_RDpaindiscrimination_maintask,2023.2.3,60.00434429172307,2024-06-07 13h36.55.897133 -0400,
1,0,1,0,,,,,0,0,0,0,0,0,0,0,,,,,1418.5117939000484,,,,,,1417.6457099001855,1418.4953853001352,,,,,,0,active,46.4,1435.4957725000568,1437.5637348000892,38.00000000000004,2.049,,1383.080731900176,1383.0948398001492,1417.6453832001425,1418.495694000041,1423.4953442001715,1423.4953512002248,1423.5118591000792,1435.528714200016,1435.4957639002241,,,,,,,,,,,,,,,,,,,,,,,,,,,,,sub-040,46.4,42.9,47.3,COM3,2024-06-07_13h36.28.408,2024_RDpaindiscrimination_maintask,2023.2.3,60.00434429172307,2024-06-07 13h36.55.897133 -0400,
1,0,1,0,,,,,0,0,0,0,1,0,1,0,,,,,1437.5786943000276,,,,,,,,,,,,,1,inactive,46.4,1454.562519100029,1457.1145099001005,41.49999999999993,2.533,,,,,1437.5645102001727,1442.5622001001611,1442.5622110001277,1442.5787152000703,1454.5955024000723,1454.5625117002055,,,,,,,,,,,,,,,,,,,,,,,,,,,,,sub-040,46.4,42.9,47.3,COM3,2024-06-07_13h36.28.408,2024_RDpaindiscrimination_maintask,2023.2.3,60.00434429172307,2024-06-07 13h36.55.897133 -0400,
1,0,1,0,,,,,0,0,0,0,,,,,0,0,0,0,1458.52898560022,,,,,,,,,,,,,2,active,,,,,,,,,,,,,,,,1457.1150573000778,1458.5125853000209,1458.5128947000485,1463.5125063001178,1463.512513200054,1463.528947800165,1471.5123895001598,1471.5123895001598,1474.4790905001573,1474.512453700183,1474.512453700183,1474.4960218002088,3.72,5.08,372,508,8,1.2,0.75,pic-absent,0,n,0.6350902998819947,None,,,,,sub-040,46.4,42.9,47.3,COM3,2024-06-07_13h36.28.408,2024_RDpaindiscrimination_maintask,2023.2.3,60.00434429172307,2024-06-07 13h36.55.897133 -0400,
1,0,1,0,,,,,0,0,0,0,,,,,1,0,1,0,1474.512453700183,,,,,,,,,,,,,3,inactive,,,,,,,,,,,,,,,,,,1474.496558500221,1479.495987500064,1479.4959944000002,1479.5124696001876,1487.4959738000762,1487.4959738000762,1490.462591700023,1490.495938600041,1490.495938600041,1490.4794783000834,4.16,4.64,416,463,8,1.2,0.75,pic-present,1,m,0.5075905001722276,None,,,,,sub-040,46.4,42.9,47.3,COM3,2024-06-07_13h36.28.408,2024_RDpaindiscrimination_maintask,2023.2.3,60.00434429172307,2024-06-07 13h36.55.897133 -0400,
1,0,1,0,,,,,0,0,0,0,,,,,2,0,2,0,1490.495938600041,,,,,,,,,,,,,0,active,,,,,,,,,,,,,,,,,,1490.4799440000206,1495.4795688001905,1495.479575900128,1495.496067700209,1503.4794380001258,1503.4794380001258,1506.446097300155,1506.4794804002158,1506.4794804002158,1506.4630222001579,3.41,5.39,341,539,8,1.2,0.75,pic-present,1,m,0.4637051001191139,None,,,,,sub-040,46.4,42.9,47.3,COM3,2024-06-07_13h36.28.408,2024_RDpaindiscrimination_maintask,2023.2.3,60.00434429172307,2024-06-07 13h36.55.897133 -0400,
1,0,1,0,,,,,0,0,0,0,,,,,3,0,3,0,1506.4794804002158,,,,,,,,,,,,,1,active,,,,,,,,,,,,,,,,,,1506.463471500203,1511.462984100217,1511.462991300039,1511.479527800111,1519.4629387001041,1519.4629387001041,1522.4295663000084,1522.4628897001967,1522.4628897001967,1522.4464809000492,4.39,4.41,438,441,8,1.2,0.75,pic-absent,0,n,0.612807699944824,None,,,,,sub-040,46.4,42.9,47.3,COM3,2024-06-07_13h36.28.408,2024_RDpaindiscrimination_maintask,2023.2.3,60.00434429172307,2024-06-07 13h36.55.897133 -0400,
1,0,1,0,,,,,1,0,1,0,0,0,0,0,,,,,1523.0795749002136,,,,,,1522.4469820000231,1523.063205000013,,,,,,2,inactive,46.4,1540.0634739000816,1542.8483540001325,46.000000000000085,2.766,,,,,1523.0635101001244,1528.0631086002104,1528.0631154000293,1528.0796030000784,1540.0964319000486,1540.0634656001348,,,,,,,,,,,,,,,,,,,,,,,,,,,,,sub-040,46.4,42.9,47.3,COM3,2024-06-07_13h36.28.408,2024_RDpaindiscrimination_maintask,2023.2.3,60.00434429172307,2024-06-07 13h36.55.897133 -0400,
1,0,1,0,,,,,1,0,1,0,1,0,1,0,,,,,1542.8631087001413,,,,,,,,,,,,,3,active,46.4,1559.8470064001158,1562.4987036001403,19.500000000000036,2.633,,,,,1542.849077100167,1547.8466502001975,1547.846657200018,1547.8632362000644,1559.8799760001712,1559.8469987001736,,,,,,,,,,,,,,,,,,,,,,,,,,,,,sub-040,46.4,42.9,47.3,COM3,2024-06-07_13h36.28.408,2024_RDpaindiscrimination_maintask,2023.2.3,60.00434429172307,2024-06-07 13h36.55.897133 -0400,
1,0,1,0,,,,,1,0,1,0,,,,,0,0,0,0,1562.979998400202,,,,,,,,,,,,,0,inactive,,,,,,,,,,,,,,,,1562.49920200021,1562.9636000001337,1562.9639098001644,1567.9635828000028,1567.9635897001717,1567.9800497000106,1575.9634636000264,1575.9634636000264,1578.9301604002248,1578.9635054999962,1578.9635054999962,1578.9470611000434,3.54,5.26,354,526,8,1.2,0.75,pic-present,1,m,0.6760952000040561,None,,,,,sub-040,46.4,42.9,47.3,COM3,2024-06-07_13h36.28.408,2024_RDpaindiscrimination_maintask,2023.2.3,60.00434429172307,2024-06-07 13h36.55.897133 -0400,
1,0,1,0,,,,,1,0,1,0,,,,,1,0,1,0,1578.9635054999962,,,,,,,,,,,,,1,active,,,,,,,,,,,,,,,,,,1578.9475811000448,1583.9470803001896,1583.9470870001242,1583.9636336001568,1591.9470099001192,1591.9470099001192,1594.9136954999994,1594.9470364002045,1594.9470364002045,1594.9305614000186,3.72,5.08,372,508,8,1.2,0.75,pic-absent,0,n,0.5888481999281794,None,,,,,sub-040,46.4,42.9,47.3,COM3,2024-06-07_13h36.28.408,2024_RDpaindiscrimination_maintask,2023.2.3,60.00434429172307,2024-06-07 13h36.55.897133 -0400,
1,0,1,0,,,,,1,0,1,0,,,,,2,0,2,0,1594.9470364002045,,,,,,,,,,,,,2,inactive,,,,,,,,,,,,,,,,,,1594.931045100093,1599.9305733002257,1599.9305803000461,1599.947098800214,1607.9305153000169,1607.9305153000169,1610.8972327001393,1610.9305449000094,1610.9305449000094,1610.9140541001689,4.52,4.28,451,428,8,1.2,0.75,pic-present,1,m,0.46066439989954233,None,,,,,sub-040,46.4,42.9,47.3,COM3,2024-06-07_13h36.28.408,2024_RDpaindiscrimination_maintask,2023.2.3,60.00434429172307,2024-06-07 13h36.55.897133 -0400,
1,0,1,0,,,,,1,0,1,0,,,,,3,0,3,0,1610.9305449000094,,,,,,,,,,,,,3,inactive,,,,,,,,,,,,,,,,,,1610.9145803002175,1615.9140974001493,1615.914104500087,1615.9305891999975,1623.91408090014,1623.91408090014,1626.8807881001849,1626.9141256001312,1626.9141256001312,1626.8976361001842,4.6,4.2,459,420,8,1.2,0.75,pic-absent,0,n,0.5134159000590444,None,,,,,sub-040,46.4,42.9,47.3,COM3,2024-06-07_13h36.28.408,2024_RDpaindiscrimination_maintask,2023.2.3,60.00434429172307,2024-06-07 13h36.55.897133 -0400,
1,0,1,0,,,,,2,0,2,0,0,0,0,0,,,,,1627.4140581001993,,,,,,1626.8981344001368,1627.3976682000794,,,,,,0,active,46.4,1644.398061600048,1646.366319600027,27.00000000000001,1.949,,,,,1627.3979526001494,1632.3976881001145,1632.397695200052,1632.4140781001188,1644.4309014000464,1644.3980533001013,,,,,,,,,,,,,,,,,,,,,,,,,,,,,sub-040,46.4,42.9,47.3,COM3,2024-06-07_13h36.28.408,2024_RDpaindiscrimination_maintask,2023.2.3,60.00434429172307,2024-06-07 13h36.55.897133 -0400,
1,0,1,0,,,,,2,0,2,0,1,0,1,0,,,,,1646.3809560001828,,,,,,,,,,,,,1,inactive,46.4,1663.3648689000402,1665.8509563000407,49.000000000000114,2.467,,,,,1646.367045500083,1651.3644337002188,1651.3644401000347,1651.3809422000777,1663.3977367000189,1663.3648610000964,,,,,,,,,,,,,,,,,,,,,,,,,,,,,sub-040,46.4,42.9,47.3,COM3,2024-06-07_13h36.28.408,2024_RDpaindiscrimination_maintask,2023.2.3,60.00434429172307,2024-06-07 13h36.55.897133 -0400,
1,0,1,0,,,,,2,0,2,0,,,,,0,0,0,0,1667.314445400145,,,,,,,,,,,,,2,active,,,,,,,,,,,,,,,,1665.851557200076,1667.2982615001965,1667.2985806001816,1672.2980576001573,1672.2980650002137,1672.3145037000068,1680.2979039000347,1680.2979039000347,1683.2646255001891,1683.2980179002043,1683.2980179002043,1683.281458800193,3.52,5.28,352,528,8,1.2,0.75,pic-present,1,m,0.4850216000340879,None,,,,,sub-040,46.4,42.9,47.3,COM3,2024-06-07_13h36.28.408,2024_RDpaindiscrimination_maintask,2023.2.3,60.00434429172307,2024-06-07 13h36.55.897133 -0400,
1,0,1,0,,,,,2,0,2,0,,,,,1,0,1,0,1683.2980179002043,,,,,,,,,,,,,3,inactive,,,,,,,,,,,,,,,,,,1683.2819671002217,1688.2814959001262,1688.2815034000669,1688.2979943000246,1696.281411100179,1696.281411100179,1699.2481213000137,1699.2814450000878,1699.2814450000878,1699.2649895001668,3.48,5.32,348,532,8,1.2,0.75,pic-absent,0,n,0.44539089989848435,None,,,,,sub-040,46.4,42.9,47.3,COM3,2024-06-07_13h36.28.408,2024_RDpaindiscrimination_maintask,2023.2.3,60.00434429172307,2024-06-07 13h36.55.897133 -0400,
1,0,1,0,,,,,2,0,2,0,,,,,2,0,2,0,1699.2814450000878,,,,,,,,,,,,,0,inactive,,,,,,,,,,,,,,,,,,1699.2654578001238,1704.2650294001214,1704.2650367000606,1704.2815663001966,1712.26498420001,1712.26498420001,1715.2316554000136,1715.264990300173,1715.264990300173,1715.2485502001364,3.29,5.51,329,551,8,1.2,0.75,pic-absent,1,m,0.4062087000347674,None,,,,,sub-040,46.4,42.9,47.3,COM3,2024-06-07_13h36.28.408,2024_RDpaindiscrimination_maintask,2023.2.3,60.00434429172307,2024-06-07 13h36.55.897133 -0400,
1,0,1,0,,,,,2,0,2,0,,,,,3,0,3,0,1715.264990300173,,,,,,,,,,,,,1,active,,,,,,,,,,,,,,,,,,1715.2490265001543,1720.2485411001835,1720.2485483000055,1720.2650118002202,1728.2484575000126,1728.2484575000126,1731.21516420017,1731.2484912001528,1731.2484912001528,1731.232009800151,4.16,4.64,416,463,8,1.2,0.75,pic-present,1,m,0.46269950014539063,None,,,,,sub-040,46.4,42.9,47.3,COM3,2024-06-07_13h36.28.408,2024_RDpaindiscrimination_maintask,2023.2.3,60.00434429172307,2024-06-07 13h36.55.897133 -0400,
1,0,1,0,,,,,3,0,3,0,0,0,0,0,,,,,1732.6818396002054,,,,,,1731.2324839001521,1732.665444900049,,,,,,2,inactive,46.4,1749.665711400099,1751.1183171002194,25.49999999999998,1.433,,,,,1732.6657462001313,1737.665396100143,1737.6654034000821,1737.6819606001955,1749.6987324000802,1749.6657028000336,,,,,,,,,,,,,,,,,,,,,,,,,,,,,sub-040,46.4,42.9,47.3,COM3,2024-06-07_13h36.28.408,2024_RDpaindiscrimination_maintask,2023.2.3,60.00434429172307,2024-06-07 13h36.55.897133 -0400,
1,0,1,0,,,,,3,0,3,0,1,0,1,0,,,,,1751.132049600128,,,,,,,,,,,,,3,active,46.4,1768.1161268001888,1770.585480300011,21.50000000000017,2.451,,,,,1751.118814200163,1756.1155787000898,1756.115585200023,1756.1320922002196,1768.1489901000168,1768.1161190001294,,,,,,,,,,,,,,,,,,,,,,,,,,,,,sub-040,46.4,42.9,47.3,COM3,2024-06-07_13h36.28.408,2024_RDpaindiscrimination_maintask,2023.2.3,60.00434429172307,2024-06-07 13h36.55.897133 -0400,
1,0,1,0,,,,,3,0,3,0,,,,,0,0,0,0,1771.1322892000899,,,,,,,,,,,,,0,inactive,,,,,,,,,,,,,,,,1770.5860511001665,1771.1158389002085,1771.1161718000658,1776.1157666000072,1776.115773400059,1776.1322754002176,1784.1156859002076,1784.1156859002076,1787.0823865002021,1787.1157380000222,1787.1157380000222,1787.0992304000538,3.84,4.96,384,496,8,1.2,0.75,pic-absent,0,n,0.6115551001857966,None,,,,,sub-040,46.4,42.9,47.3,COM3,2024-06-07_13h36.28.408,2024_RDpaindiscrimination_maintask,2023.2.3,60.00434429172307,2024-06-07 13h36.55.897133 -0400,
1,0,1,0,,,,,3,0,3,0,,,,,1,0,1,0,1787.1157380000222,,,,,,,,,,,,,1,active,,,,,,,,,,,,,,,,,,1787.0997863002121,1792.0992616000585,1792.0992688999977,1792.1157788001,1800.0991963001434,1800.0991963001434,1803.0658834001515,1803.0992289001588,1803.0992289001588,1803.0827951000538,4.56,4.24,455,424,8,1.2,0.75,pic-present,1,m,0.6635160001460463,None,,,,,sub-040,46.4,42.9,47.3,COM3,2024-06-07_13h36.28.408,2024_RDpaindiscrimination_maintask,2023.2.3,60.00434429172307,2024-06-07 13h36.55.897133 -0400,
1,0,1,0,,,,,3,0,3,0,,,,,2,0,2,0,1803.0992289001588,,,,,,,,,,,,,2,active,,,,,,,,,,,,,,,,,,1803.0832476001233,1808.0829437000211,1808.082950200187,1808.0992811000906,1816.0827733001206,1816.0827733001206,1819.0495126000606,1819.0828431001864,1819.0828431001864,1819.0663411000278,4.71,4.09,471,409,8,1.2,0.75,pic-absent,0,n,1.8482201001606882,None,,,,,sub-040,46.4,42.9,47.3,COM3,2024-06-07_13h36.28.408,2024_RDpaindiscrimination_maintask,2023.2.3,60.00434429172307,2024-06-07 13h36.55.897133 -0400,
1,0,1,0,,,,,3,0,3,0,,,,,3,0,3,0,1819.0828431001864,,,,,,,,,,,,,3,inactive,,,,,,,,,,,,,,,,,,1819.0668303000275,1824.0663984001148,1824.06640650006,1824.0828581000678,1832.0663142001722,1832.0663142001722,1835.0330206002109,1835.0663505000994,1835.0663505000994,1835.0498626001645,3.89,4.91,389,491,8,1.2,0.75,pic-present,1,m,0.49320969986729324,None,,,,,sub-040,46.4,42.9,47.3,COM3,2024-06-07_13h36.28.408,2024_RDpaindiscrimination_maintask,2023.2.3,60.00434429172307,2024-06-07 13h36.55.897133 -0400,
,,,,,,,,,,,,,,,,,,,,,,,,,,,,,,,,,,,,,,,,,,,,,,,,,,,,,,,,,,,,,,,,,,,,,,,,,,1835.050294100074,1838.866613500053,1838.8666343002114,1848.8665949001443,,,,,,,,,,,
