series.thisRepN,series.thisTrialN,series.thisN,series.thisIndex,Ramp.thisRepN,Ramp.thisTrialN,Ramp.thisN,Ramp.thisIndex,trials.thisRepN,trials.thisTrialN,trials.thisN,trials.thisIndex,thisRow.t,notes,Welcome.started,Welcome.stopped,instructions2.started,instructions2.stopped,instructions_start_ramp.started,instructions_start_ramp.stopped,confirm_continue.started,key_resp_8.started,confirm_continue.stopped,intensity,wait1_dur,wait.started,wait.stopped,therm_trig.started,therm_trig.stopped,rating_scale.started,rating_scale.stopped,rating,ratingScale.response,ratingScale.rt,press_when_ready.started,text_2.started,key_resp_3.started,press_when_ready.stopped,key_resp_3.keys,key_resp_3.rt,key_resp_3.duration,bloc_terminé.started,bloc_terminé.stopped,compile_ramps.started,compile_ramps.stopped,deuxieme_start.started,deuxieme_start.stopped,press_when_ready2.started,text_9.started,press_when_ready2.stopped,wait_2.started,wait_2.stopped,therm_trig2.started,therm_trig2.stopped,rating_scale2.started,ratingScale_2.started,rating_scale2.stopped,keyResp_2.keys,therm_value,ratingScale_2.response,ratingScale_2.rt,thank_you_output_code.started,thank_you_output_code.stopped,participant,com_thermode,nramps,date,expName,psychopyVersion,frameRate,expStart,
0,0,0,0,0,0,0,0,,,,,250.11369330000161,,0.007810200000676559,239.64876640000148,239.6488113000014,245.24780649999957,245.24858020000102,250.0981651000002,250.09887860000163,250.11369330000161,252.19820840000102,41,2.1,252.19859980000183,254.29770270000154,254.2977178000001,264.2987128999994,264.2987256999986,274.5918211999997,9.500000000000204,9.500000000000204,10.182,274.59291099999973,274.61427040000126,274.61427040000126,280.73219550000067,y,6.113171400000283,None,,,,,,,,,,,,,,,,,,,,,,,sub-003,COM3,3,2024-01-23_16h04.05.791,2024_RDpaindiscrimination_calibration,2023.2.3,59.97990673055273,2024-01-23 16h04.17.513282 -0500,
0,0,0,0,1,0,1,0,,,,,280.7477518000014,,,,,,,,280.7329451000005,280.7477518000014,281.3653951000015,42,2.3,281.3656572,283.6650418999998,283.6650569000012,293.6660441999993,293.6660564999984,297.6230706999995,18.000000000000036,18.000000000000036,3.888,297.6239495000009,297.64820379999946,297.64820379999946,301.5493524000012,y,3.8989421000005677,None,,,,,,,,,,,,,,,,,,,,,,,sub-003,COM3,3,2024-01-23_16h04.05.791,2024_RDpaindiscrimination_calibration,2023.2.3,59.97990673055273,2024-01-23 16h04.17.513282 -0500,
0,0,0,0,2,0,2,0,,,,,301.5649287999986,,,,,,,,301.54993789999935,301.5649287999986,302.3325392000006,43,2.3,302.33279720000064,304.6322953000017,304.6323096999986,314.6332766000014,314.63328860000183,320.4725924999984,33.0000000000001,33.0000000000001,5.77,320.47347810000065,320.4988258000012,320.4988258000012,329.6332285999997,y,9.123960699998861,None,,,,,,,,,,,,,,,,,,,,,,,sub-003,COM3,3,2024-01-23_16h04.05.791,2024_RDpaindiscrimination_calibration,2023.2.3,59.97990673055273,2024-01-23 16h04.17.513282 -0500,
0,0,0,0,3,0,3,0,,,,,329.64891590000116,,,,,,,,329.63381500000105,329.64891590000116,330.0998814000013,44,2.0,330.10013120000076,332.09946090000085,332.09947549999924,342.1005643999997,342.10057589999997,347.903327,47.500000000000114,47.500000000000114,5.734,347.90363010000146,347.91603029999897,347.91603029999897,351.5837085999992,y,3.6591531999984,None,,,,,,,,,,,,,,,,,,,,,,,sub-003,COM3,3,2024-01-23_16h04.05.791,2024_RDpaindiscrimination_calibration,2023.2.3,59.97990673055273,2024-01-23 16h04.17.513282 -0500,
0,0,0,0,4,0,4,0,,,,,351.5994328000015,,,,,,,,351.5842951000013,351.5994328000015,352.3670553000011,45,2.2,352.3673075000006,354.56672270000126,354.5667371000018,364.56777370000054,364.5677849999993,370.0697570000011,57.000000000000085,57.000000000000085,5.433,370.07005690000005,370.08322490000137,370.08322490000137,373.9342641000003,y,3.839545499999076,None,,,,,,,,,,,,,,,,,,,,,,,sub-003,COM3,3,2024-01-23_16h04.05.791,2024_RDpaindiscrimination_calibration,2023.2.3,59.97990673055273,2024-01-23 16h04.17.513282 -0500,
0,0,0,0,5,0,5,0,,,,,373.94996190000165,,,,,,,,373.9348495000013,373.94996190000165,374.71760129999893,46,2.2,374.71784409999964,376.9172359000004,376.91725059999953,386.9182946000001,386.91830649999974,390.5541455999992,66.99999999999997,66.99999999999997,3.567,390.55443699999887,390.5670238999992,390.5670238999992,394.13475330000074,n,3.5602326999978686,None,,,,,,,,,,,,,,,,,,,,,,,sub-003,COM3,3,2024-01-23_16h04.05.791,2024_RDpaindiscrimination_calibration,2023.2.3,59.97990673055273,2024-01-23 16h04.17.513282 -0500,
0,0,0,0,,,,,,,,,,,,,,,,,,,,,,,,,,,,,,,,,,,,,,394.13516080000045,398.13437239999985,,,,,,,,,,,,,,,,,,,,,sub-003,COM3,3,2024-01-23_16h04.05.791,2024_RDpaindiscrimination_calibration,2023.2.3,59.97990673055273,2024-01-23 16h04.17.513282 -0500,
1,0,1,0,0,0,0,0,,,,,408.1842394999985,,,,,,398.1346263999985,408.1683701000002,408.1691075999988,408.1842394999985,408.8517400000019,41,2.4,408.85209079999913,411.2514537999996,411.2514685999995,421.25241000000096,421.2524221999993,426.2890370999994,14.500000000000075,14.500000000000075,4.967,426.28939119999995,426.30121879999933,426.30121879999933,429.102178000001,y,2.7898363999993308,None,,,,,,,,,,,,,,,,,,,,,,,sub-003,COM3,3,2024-01-23_16h04.05.791,2024_RDpaindiscrimination_calibration,2023.2.3,59.97990673055273,2024-01-23 16h04.17.513282 -0500,
1,0,1,0,1,0,1,0,,,,,429.1179516000011,,,,,,,,429.10291470000084,429.1179516000011,429.6355254000009,42,2.2,429.63576209999883,431.83517270000084,431.83518750000076,441.83627120000165,441.83628300000055,444.7424462000017,26.49999999999998,26.49999999999998,2.837,444.74333019999904,444.76831909999964,444.76831909999964,447.68594289999965,y,2.9064256999990903,None,,,,,,,,,,,,,,,,,,,,,,,sub-003,COM3,3,2024-01-23_16h04.05.791,2024_RDpaindiscrimination_calibration,2023.2.3,59.97990673055273,2024-01-23 16h04.17.513282 -0500,
1,0,1,0,2,0,2,0,,,,,447.70183539999925,,,,,,,,447.6865222000015,447.70183539999925,448.2194415999984,43,2.0,448.21969270000045,450.21894560000146,450.2189600999991,460.2200187000017,460.22003140000015,466.6072645999993,12.5000000000001,12.5000000000001,6.318,466.60802949999925,466.6189540000014,466.6189540000014,470.7865902000012,y,4.156058299999131,None,,,,,,,,,,,,,,,,,,,,,,,sub-003,COM3,3,2024-01-23_16h04.05.791,2024_RDpaindiscrimination_calibration,2023.2.3,59.97990673055273,2024-01-23 16h04.17.513282 -0500,
1,0,1,0,3,0,3,0,,,,,470.8023948000009,,,,,,,,470.7871723999997,470.8023948000009,471.55321529999856,44,2.4,471.55347130000155,473.95291240000006,473.95292699999845,483.95391240000026,483.95392419999916,487.4242118000002,38.500000000000114,38.500000000000114,3.401,487.4249595000001,487.43607110000085,487.43607110000085,490.4703960000006,y,3.023118400000385,None,,,,,,,,,,,,,,,,,,,,,,,sub-003,COM3,3,2024-01-23_16h04.05.791,2024_RDpaindiscrimination_calibration,2023.2.3,59.97990673055273,2024-01-23 16h04.17.513282 -0500,
1,0,1,0,4,0,4,0,,,,,490.48616010000114,,,,,,,,490.4709785999985,490.48616010000114,491.02054560000033,45,2.1,491.02081030000045,493.1199385,493.1199530999984,503.1210207000004,503.1210324999993,508.29500629999893,58.499999999999865,58.499999999999865,5.105,508.2958804000009,508.3198679999987,508.3198679999987,512.2208601999992,y,3.8943976999980805,None,,,,,,,,,,,,,,,,,,,,,,,sub-003,COM3,3,2024-01-23_16h04.05.791,2024_RDpaindiscrimination_calibration,2023.2.3,59.97990673055273,2024-01-23 16h04.17.513282 -0500,
1,0,1,0,5,0,5,0,,,,,512.2366556999987,,,,,,,,512.2214386000014,512.2366556999987,512.8375468000013,46,2.0,512.837786600001,514.837120799999,514.8371355000018,524.8382992000006,524.8383113999989,529.3946952000006,69.49999999999983,69.49999999999983,4.488,529.3955502999997,529.4204231000003,529.4204231000003,532.7047880999999,n,3.2823293000001286,None,,,,,,,,,,,,,,,,,,,,,,,sub-003,COM3,3,2024-01-23_16h04.05.791,2024_RDpaindiscrimination_calibration,2023.2.3,59.97990673055273,2024-01-23 16h04.17.513282 -0500,
1,0,1,0,,,,,,,,,,,,,,,,,,,,,,,,,,,,,,,,,,,,,,532.7051930999987,536.7043067999984,,,,,,,,,,,,,,,,,,,,,sub-003,COM3,3,2024-01-23_16h04.05.791,2024_RDpaindiscrimination_calibration,2023.2.3,59.97990673055273,2024-01-23 16h04.17.513282 -0500,
2,0,2,0,0,0,0,0,,,,,540.0205682999986,,,,,,536.7045624999992,540.0047990999992,540.0055088000008,540.0205682999986,540.8216038999999,41,2.1,540.8219453999991,542.9211307000005,542.921145100001,552.9222040999994,552.9222162000005,557.3951826000011,3.5000000000002003,3.5000000000002003,4.405,557.3962327000008,557.4209808000014,557.4209808000014,560.0552605999983,y,2.621464100000594,None,,,,,,,,,,,,,,,,,,,,,,,sub-003,COM3,3,2024-01-23_16h04.05.791,2024_RDpaindiscrimination_calibration,2023.2.3,59.97990673055273,2024-01-23 16h04.17.513282 -0500,
2,0,2,0,1,0,1,0,,,,,560.0711446999994,,,,,,,,560.0559949999988,560.0711446999994,560.7219745000002,42,2.3,560.7222177000003,563.0216679000005,563.0216824999989,573.0226715999997,573.0226834999994,577.3577879000004,9.500000000000204,9.500000000000204,4.266,577.3580795000016,577.3714450000007,577.3714450000007,579.572402400001,y,2.1870520999982546,None,,,,,,,,,,,,,,,,,,,,,,,sub-003,COM3,3,2024-01-23_16h04.05.791,2024_RDpaindiscrimination_calibration,2023.2.3,59.97990673055273,2024-01-23 16h04.17.513282 -0500,
2,0,2,0,2,0,2,0,,,,,579.5881432999995,,,,,,,,579.5729764999996,579.5881432999995,580.3391282000011,43,2.5,580.3393780000006,582.8387484999985,582.8387640000001,592.8397909000014,592.8398029999989,598.0625766000012,17.000000000000078,17.000000000000078,5.154,598.0634519000014,598.0886718000002,598.0886718000002,600.7229490999998,y,2.6175960000000487,None,,,,,,,,,,,,,,,,,,,,,,,sub-003,COM3,3,2024-01-23_16h04.05.791,2024_RDpaindiscrimination_calibration,2023.2.3,59.97990673055273,2024-01-23 16h04.17.513282 -0500,
2,0,2,0,3,0,3,0,,,,,600.7386422000018,,,,,,,,600.7235260000016,600.7386422000018,601.2397253000017,44,2.4,601.2399737000014,603.6392421000019,603.6392569000018,613.6401783000001,613.6401903000005,616.1967526000008,27.49999999999997,27.49999999999997,2.487,616.1976137999991,616.2223651999993,616.2223651999993,619.4066907999986,y,3.17249709999669,None,,,,,,,,,,,,,,,,,,,,,,,sub-003,COM3,3,2024-01-23_16h04.05.791,2024_RDpaindiscrimination_calibration,2023.2.3,59.97990673055273,2024-01-23 16h04.17.513282 -0500,
2,0,2,0,4,0,4,0,,,,,619.4225336999989,,,,,,,,619.4072683000013,619.4225336999989,620.3067101999986,45,2.1,620.3069682999994,622.4063381000014,622.4063526999998,632.4073127000011,632.4073252000017,635.4435871999995,36.50000000000012,36.50000000000012,2.967,635.4438751000016,635.4561443999992,635.4561443999992,638.3741273000014,y,2.9106917999997677,None,,,,,,,,,,,,,,,,,,,,,,,sub-003,COM3,3,2024-01-23_16h04.05.791,2024_RDpaindiscrimination_calibration,2023.2.3,59.97990673055273,2024-01-23 16h04.17.513282 -0500,
2,0,2,0,5,0,5,0,,,,,638.3895239999983,,,,,,,,638.3757029000008,638.3895239999983,638.8906867000005,46,2.3,638.8909281000015,641.1900873999984,641.1901022999991,651.1912211000017,651.1912335999987,654.926840600001,47.99999999999991,47.99999999999991,3.666,654.9271345999987,654.9399459000015,654.9399459000015,657.6076543000017,y,2.662180300001637,None,,,,,,,,,,,,,,,,,,,,,,,sub-003,COM3,3,2024-01-23_16h04.05.791,2024_RDpaindiscrimination_calibration,2023.2.3,59.97990673055273,2024-01-23 16h04.17.513282 -0500,
2,0,2,0,6,0,6,0,,,,,657.6233131000008,,,,,,,,657.6082287999998,657.6233131000008,658.1742946999984,47,2.2,658.174539399999,660.3738918000017,660.3739077999999,670.3748775999993,670.3748895999997,673.8283569000014,66.99999999999987,66.99999999999987,3.384,673.8288597999999,673.8405071999987,673.8405071999987,677.5914365999997,n,3.745419499999116,None,,,,,,,,,,,,,,,,,,,,,,,sub-003,COM3,3,2024-01-23_16h04.05.791,2024_RDpaindiscrimination_calibration,2023.2.3,59.97990673055273,2024-01-23 16h04.17.513282 -0500,
2,0,2,0,,,,,,,,,,,,,,,,,,,,,,,,,,,,,,,,,,,,,,677.5918449000019,681.5910207000015,,,,,,,,,,,,,,,,,,,,,sub-003,COM3,3,2024-01-23_16h04.05.791,2024_RDpaindiscrimination_calibration,2023.2.3,59.97990673055273,2024-01-23 16h04.17.513282 -0500,
,,,,,,,,0,0,0,0,703.7243990999996,,,,,,,,,,,,2.4,,,,,,,66.9999999999999,,,,,,,,,,,,681.5910648999998,686.6074031999997,686.6074144000013,703.7088470000017,703.7096521999993,703.7243990999996,705.8254191999986,705.8254358000013,708.2250263999995,708.2250443000012,718.2259954000001,718.2260090000018,722.1583088000007,722.1455109999988,None,46.5,None,None,,,sub-003,COM3,3,2024-01-23_16h04.05.791,2024_RDpaindiscrimination_calibration,2023.2.3,59.97990673055273,2024-01-23 16h04.17.513282 -0500,
,,,,,,,,1,0,1,0,722.1583088000007,,,,,,,,,,,,2.0,,,,,,,17.500000000000032,,,,,,,,,,,,,,,,722.1465394000006,722.1583088000007,723.9925167000001,723.9925334,725.9920606999985,725.9920764999988,735.993138400001,735.9931518000012,738.4253193000004,738.4120765000007,None,43.8,None,None,,,sub-003,COM3,3,2024-01-23_16h04.05.791,2024_RDpaindiscrimination_calibration,2023.2.3,59.97990673055273,2024-01-23 16h04.17.513282 -0500,
,,,,,,,,2,0,2,0,738.4253193000004,,,,,,,,,,,,2.1,,,,,,,11.000000000000028,,,,,,,,,,,,,,,,738.4128359999995,738.4253193000004,740.0595083000007,740.0595243999996,742.1590284000013,742.159047000001,752.1602133999986,752.1602289000002,754.2923807000006,754.2660928000005,None,41.5,None,None,,,sub-003,COM3,3,2024-01-23_16h04.05.791,2024_RDpaindiscrimination_calibration,2023.2.3,59.97990673055273,2024-01-23 16h04.17.513282 -0500,
,,,,,,,,3,0,3,0,754.2923807000006,,,,,,,,,,,,2.0,,,,,,,47.4999999999999,,,,,,,,,,,,,,,,754.268374700001,754.2923807000006,755.2933785999994,755.2933951999985,757.2928577999992,757.292873800001,767.2938992999989,767.2939121999989,770.5594285000006,770.5344813000011,None,44.2,None,None,,,sub-003,COM3,3,2024-01-23_16h04.05.791,2024_RDpaindiscrimination_calibration,2023.2.3,59.97990673055273,2024-01-23 16h04.17.513282 -0500,
,,,,,,,,4,0,4,0,770.5594285000006,,,,,,,,,,,,2.0,,,,,,,52.999999999999964,,,,,,,,,,,,,,,,770.5367985999983,770.5594285000006,771.5935967000005,771.5936129000002,773.5930155999995,773.5930322999993,783.5943015000012,783.5943148000006,786.4763956999996,786.4512326000004,None,42.8,None,None,,,sub-003,COM3,3,2024-01-23_16h04.05.791,2024_RDpaindiscrimination_calibration,2023.2.3,59.97990673055273,2024-01-23 16h04.17.513282 -0500,
,,,,,,,,5,0,5,0,786.4763956999996,,,,,,,,,,,,2.0,,,,,,,13.0000000000001,,,,,,,,,,,,,,,,786.4535738999984,786.4763956999996,788.2106485000004,788.2106671000001,790.2103865999998,790.2104026999987,800.2113645999998,800.2113776000006,803.4435507000017,803.4302314000015,None,43.3,None,None,,,sub-003,COM3,3,2024-01-23_16h04.05.791,2024_RDpaindiscrimination_calibration,2023.2.3,59.97990673055273,2024-01-23 16h04.17.513282 -0500,
,,,,,,,,6,0,6,0,803.4435507000017,,,,,,,,,,,,2.2,,,,,,,56.99999999999987,,,,,,,,,,,,,,,,803.4309943000007,803.4435507000017,804.6443978999996,804.6444135999991,806.8440111999989,806.8440268999984,816.8450908999985,816.8451038999992,819.8272494000012,819.814849800001,None,45.6,None,None,,,sub-003,COM3,3,2024-01-23_16h04.05.791,2024_RDpaindiscrimination_calibration,2023.2.3,59.97990673055273,2024-01-23 16h04.17.513282 -0500,
,,,,,,,,7,0,7,0,819.8272494000012,,,,,,,,,,,,2.1,,,,,,,49.999999999999964,,,,,,,,,,,,,,,,819.8156114999983,819.8272494000012,820.8947927000008,820.8948086000019,822.9943786000003,822.9943950999987,832.9955455000018,832.9955585999996,834.7941556000005,834.7807194000015,None,44.7,None,None,,,sub-003,COM3,3,2024-01-23_16h04.05.791,2024_RDpaindiscrimination_calibration,2023.2.3,59.97990673055273,2024-01-23 16h04.17.513282 -0500,
,,,,,,,,8,0,8,0,834.7941556000005,,,,,,,,,,,,2.3,,,,,,,27.500000000000114,,,,,,,,,,,,,,,,834.7814900999983,834.7941556000005,836.3952238999991,836.3952401999995,838.6947279999986,838.6947435000002,848.6958067999985,848.6958199000001,851.4779965999987,851.4647255999989,None,42.4,None,None,,,sub-003,COM3,3,2024-01-23_16h04.05.791,2024_RDpaindiscrimination_calibration,2023.2.3,59.97990673055273,2024-01-23 16h04.17.513282 -0500,
,,,,,,,,9,0,9,0,851.4779965999987,,,,,,,,,,,,2.2,,,,,,,71.50000000000003,,,,,,,,,,,,,,,,851.4654813999987,851.4779965999987,852.7788232999992,852.7788397000004,854.9784518000015,854.9784676000017,864.9794341999987,864.9794475999988,867.8116621000008,867.786959699999,None,47.0,None,None,,,sub-003,COM3,3,2024-01-23_16h04.05.791,2024_RDpaindiscrimination_calibration,2023.2.3,59.97990673055273,2024-01-23 16h04.17.513282 -0500,
,,,,,,,,10,0,10,0,867.8116621000008,,,,,,,,,,,,2.4,,,,,,,2.9999999999999964,,,,,,,,,,,,,,,,867.7892657000011,867.8116621000008,869.2127432999987,869.2127595999991,871.6121939000004,871.6122103000016,881.6132569000001,881.6132694000007,883.4119883999992,883.3866983000007,None,41.9,None,None,,,sub-003,COM3,3,2024-01-23_16h04.05.791,2024_RDpaindiscrimination_calibration,2023.2.3,59.97990673055273,2024-01-23 16h04.17.513282 -0500,
,,,,,,,,11,0,11,0,883.4119883999992,,,,,,,,,,,,2.2,,,,,,,67.50000000000004,,,,,,,,,,,,,,,,883.3890482999996,883.4119883999992,884.7795737000015,884.779589400001,886.9791922000004,886.9792080000007,896.9803061999992,896.9803193000007,898.8291052999994,898.8153961999997,None,46.1,None,None,,,sub-003,COM3,3,2024-01-23_16h04.05.791,2024_RDpaindiscrimination_calibration,2023.2.3,59.97990673055273,2024-01-23 16h04.17.513282 -0500,
,,,,,,,,12,0,12,0,898.8291052999994,,,,,,,,,,,,2.3,,,,,,,14.500000000000066,,,,,,,,,,,,,,,,898.8161609999988,898.8291052999994,900.246772800001,900.2467895000009,902.5462188999991,902.5462350000016,912.5471982999989,912.5472119000005,914.8460372000009,914.8329728999997,None,41.0,None,None,,,sub-003,COM3,3,2024-01-23_16h04.05.791,2024_RDpaindiscrimination_calibration,2023.2.3,59.97990673055273,2024-01-23 16h04.17.513282 -0500,
,,,,,,,,13,0,13,0,914.8460372000009,,,,,,,,,,,,2.0,,,,,,,40.00000000000001,,,,,,,,,,,,,,,,914.8337324999993,914.8460372000009,915.6305758999988,915.6305924000008,917.6300044000018,917.6300198999998,927.6310183999994,927.6310314000002,930.9297823000015,930.904284100001,None,45.2,None,None,,,sub-003,COM3,3,2024-01-23_16h04.05.791,2024_RDpaindiscrimination_calibration,2023.2.3,59.97990673055273,2024-01-23 16h04.17.513282 -0500,
,,,,,,,,,,,,,,,,,,,,,,,,,,,,,,,,,,,,,,,,,,,,,,,,,,,,,,,,,,,,,930.9059992000002,935.913249199999,,,,,,,,,
