trials.thisRepN,trials.thisTrialN,trials.thisN,trials.thisIndex,loop_test.thisRepN,loop_test.thisTrialN,loop_test.thisN,loop_test.thisIndex,loop_eval_discri.thisRepN,loop_eval_discri.thisTrialN,loop_eval_discri.thisN,loop_eval_discri.thisIndex,loop_eval.thisRepN,loop_eval.thisTrialN,loop_eval.thisN,loop_eval.thisIndex,loop_discri.thisRepN,loop_discri.thisTrialN,loop_discri.thisN,loop_discri.thisIndex,thisRow.t,notes,Set_up.started,Set_up.stopped,electrode_check.started,electrode_check.stopped,instructions_eval.started,instructions_eval.stopped,pause_5_test.started,pause_5_test.stopped,Phase_Test.started,thermode_locali.started,thermode_locali.stopped,Phase_Test.stopped,loca_thermode,condition,temp_trial_sent,eval_douleur.started,eval_douleur.stopped,ratingScale.response,ratingScale.rt,Fin_test.started,text.started,Fin_test.stopped,pause_5_EVA.started,pause_5_EVA.stopped,tâche_EVA.started,thermode_locali_EVA.started,thermode_locali_EVA.stopped,tâche_EVA.stopped,instructions_discrim.started,instructions_discrim.stopped,pause_5_pic.started,pause_5_pic.stopped,tâche_PIC.started,thermode_locali_pic.started,percu_or.started,responser.started,percu_or.stopped,responser.stopped,thermode_locali_pic.stopped,tâche_PIC.stopped,dur_plateau1,dur_plateau2,dur_plateau1_sent,dur_plateau2_sent,start_plateau_2_resp,dur_pic,dur_rise,pic_presence,pic_response,discrimin_resp.keys,discrimin_resp.rt,discrimin_resp.duration,break_entre_bloc.started,break_entre_bloc.stopped,merci.started,merci.stopped,participant,temp_flat,temp_active,temp_pic_set,com_thermode,date,expName,psychopyVersion,frameRate,expStart,
0,0,0,0,0,0,0,0,,,,,,,,,,,,,121.06462060000013,,0.011769099999582977,116.68218259999958,116.68293789999916,118.13213050000013,118.13214399999924,121.04924579999897,121.05094169999938,126.04859509999915,126.04860699999881,126.06471239999883,138.14839109999957,138.04936259999886,0,inactive,44.5,138.04937739999878,142.20040599999993,2.5000000000002003,4.066,,,,,,,,,,,,,,,,,,,,,,,,,,,,,,,,,,,,,,sub-008,44.5,42.1,45.3,COM3,2024-01-29_11h08.46.110,2024_RDpaindiscrimination_maintask,2023.2.3,60.00686478564706,2024-01-29 11h09.22.758398 -0500,
0,0,0,0,1,0,1,0,,,,,,,,,,,,,142.21513569999843,,,,,,,,142.2010597999997,147.19910309999977,147.1991139999991,147.21537360000002,159.2822357999994,159.19986699999936,1,active,44.5,159.1998810999994,162.95220319999862,0.0,3.681,,,,,,,,,,,,,,,,,,,,,,,,,,,,,,,,,,,,,,sub-008,44.5,42.1,45.3,COM3,2024-01-29_11h08.46.110,2024_RDpaindiscrimination_maintask,2023.2.3,60.00686478564706,2024-01-29 11h09.22.758398 -0500,
0,0,0,0,2,0,2,0,,,,,,,,,,,,,162.9823708999993,,,,,,,,162.95391599999857,167.96583219999957,167.96584219999932,167.98245309999947,,179.96611759999905,2,inactive,44.5,179.9661314999994,183.53577309999855,0.0,3.499,,,,,,,,,,,,,,,,,,,,,,,,,,,,,,,,,,,,,,sub-008,44.5,42.1,45.3,COM3,2024-01-29_11h08.46.110,2024_RDpaindiscrimination_maintask,2023.2.3,60.00686478564706,2024-01-29 11h09.22.758398 -0500,
0,0,0,0,3,0,3,0,,,,,,,,,,,,,183.56619069999942,,,,,,,,183.53753179999876,188.54969079999864,188.5497008000002,188.56631279999965,,200.54997790000016,3,active,44.5,200.5499932999992,204.65326939999977,5.0000000000002,4.032,,,,,,,,,,,,,,,,,,,,,,,,,,,,,,,,,,,,,,sub-008,44.5,42.1,45.3,COM3,2024-01-29_11h08.46.110,2024_RDpaindiscrimination_maintask,2023.2.3,60.00686478564706,2024-01-29 11h09.22.758398 -0500,
0,0,0,0,4,0,4,0,,,,,,,,,,,,,204.6666709000001,,,,,,,,204.65386079999917,209.65073979999943,209.6507505999998,209.6667886999985,221.8338963999995,221.6514417999988,0,inactive,44.5,221.65145549999943,224.03730969999924,35.49999999999998,2.236,,,,,,,,,,,,,,,,,,,,,,,,,,,,,,,,,,,,,,sub-008,44.5,42.1,45.3,COM3,2024-01-29_11h08.46.110,2024_RDpaindiscrimination_maintask,2023.2.3,60.00686478564706,2024-01-29 11h09.22.758398 -0500,
0,0,0,0,5,0,5,0,,,,,,,,,,,,,224.0671939999993,,,,,,,,224.0390613999989,229.05064709999897,229.05065729999842,229.0672696999991,,241.05095729999994,1,active,44.5,241.05097119999846,243.2212245999999,3.9999999999999876,2.099,,,,,,,,,,,,,,,,,,,,,,,,,,,,,,,,,,,,,,sub-008,44.5,42.1,45.3,COM3,2024-01-29_11h08.46.110,2024_RDpaindiscrimination_maintask,2023.2.3,60.00686478564706,2024-01-29 11h09.22.758398 -0500,
0,0,0,0,6,0,6,0,,,,,,,,,,,,,243.25111089999882,,,,,,,,243.22294839999995,248.23448029999963,248.23449059999984,248.2511128999995,,260.2347837999987,2,active,44.5,260.2347977999998,263.60421159999896,0.0,3.298,,,,,,,,,,,,,,,,,,,,,,,,,,,,,,,,,,,,,,sub-008,44.5,42.1,45.3,COM3,2024-01-29_11h08.46.110,2024_RDpaindiscrimination_maintask,2023.2.3,60.00686478564706,2024-01-29 11h09.22.758398 -0500,
0,0,0,0,7,0,7,0,,,,,,,,,,,,,263.61825940000017,,,,,,,,263.6052891999989,268.60215160000007,268.6021624999994,268.61826329999894,280.68523189999905,280.60288169999876,3,inactive,44.5,280.60289569999986,283.72063179999896,53.49999999999995,3.046,,,,,,,,,,,,,,,,,,,,,,,,,,,,,,,,,,,,,,sub-008,44.5,42.1,45.3,COM3,2024-01-29_11h08.46.110,2024_RDpaindiscrimination_maintask,2023.2.3,60.00686478564706,2024-01-29 11h09.22.758398 -0500,
0,0,0,0,8,0,8,0,,,,,,,,,,,,,283.7353086999992,,,,,,,,283.721228299999,288.71931810000024,288.7193288999988,288.75209749999885,,300.73578669999915,0,active,44.5,300.73580069999844,303.2884807999999,6.000000000000059,2.481,,,,,,,,,,,,,,,,,,,,,,,,,,,,,,,,,,,,,,sub-008,44.5,42.1,45.3,COM3,2024-01-29_11h08.46.110,2024_RDpaindiscrimination_maintask,2023.2.3,60.00686478564706,2024-01-29 11h09.22.758398 -0500,
0,0,0,0,9,0,9,0,,,,,,,,,,,,,303.31914959999995,,,,,,,,303.2902385999987,308.30262909999874,308.30263919999925,308.3192256000002,,320.3029510999986,1,inactive,44.5,320.3029666000002,323.7054128999989,52.49999999999996,3.331,,,,,,,,,,,,,,,,,,,,,,,,,,,,,,,,,,,,,,sub-008,44.5,42.1,45.3,COM3,2024-01-29_11h08.46.110,2024_RDpaindiscrimination_maintask,2023.2.3,60.00686478564706,2024-01-29 11h09.22.758398 -0500,
0,0,0,0,10,0,10,0,,,,,,,,,,,,,323.73643749999974,,,,,,,,323.7071484999997,328.719822699999,328.7198325999998,328.7364174999984,,340.72010539999974,2,inactive,44.5,340.7201193000001,344.00630289999935,1.5000000000000586,3.215,,,,,,,,,,,,,,,,,,,,,,,,,,,,,,,,,,,,,,sub-008,44.5,42.1,45.3,COM3,2024-01-29_11h08.46.110,2024_RDpaindiscrimination_maintask,2023.2.3,60.00686478564706,2024-01-29 11h09.22.758398 -0500,
0,0,0,0,11,0,11,0,,,,,,,,,,,,,344.0368364999995,,,,,,,,344.0080324999999,349.0203101999996,349.0203217999988,349.03691919999983,,361.02058679999936,3,active,44.5,361.020601799999,365.08918899999844,22.00000000000007,3.998,,,,,,,,,,,,,,,,,,,,,,,,,,,,,,,,,,,,,,sub-008,44.5,42.1,45.3,COM3,2024-01-29_11h08.46.110,2024_RDpaindiscrimination_maintask,2023.2.3,60.00686478564706,2024-01-29 11h09.22.758398 -0500,
0,0,0,0,12,0,12,0,,,,,,,,,,,,,365.1039854999999,,,,,,,,365.0897926999987,370.0879535999993,370.08796509999956,370.1041078999988,382.1710733,382.08865569999944,0,active,44.5,382.0886695999998,386.52508149999994,3.000000000000067,4.366,,,,,,,,,,,,,,,,,,,,,,,,,,,,,,,,,,,,,,sub-008,44.5,42.1,45.3,COM3,2024-01-29_11h08.46.110,2024_RDpaindiscrimination_maintask,2023.2.3,60.00686478564706,2024-01-29 11h09.22.758398 -0500,
0,0,0,0,13,0,13,0,,,,,,,,,,,,,386.55462329999864,,,,,,,,386.5268519000001,391.53801909999856,391.53802899999937,391.5546144,,403.53832109999894,1,inactive,44.5,403.5383349999993,407.1914405999996,1.5000000000001297,3.582,,,,,,,,,,,,,,,,,,,,,,,,,,,,,,,,,,,,,,sub-008,44.5,42.1,45.3,COM3,2024-01-29_11h08.46.110,2024_RDpaindiscrimination_maintask,2023.2.3,60.00686478564706,2024-01-29 11h09.22.758398 -0500,
0,0,0,0,14,0,14,0,,,,,,,,,,,,,407.20500600000014,,,,,,,,407.19204009999885,412.1889870999985,412.1889984999998,412.2051083999995,424.2721118999998,424.18968869999844,2,active,44.5,424.18970269999954,428.10845269999845,0.0,3.847,,,,,,,,,,,,,,,,,,,,,,,,,,,,,,,,,,,,,,sub-008,44.5,42.1,45.3,COM3,2024-01-29_11h08.46.110,2024_RDpaindiscrimination_maintask,2023.2.3,60.00686478564706,2024-01-29 11h09.22.758398 -0500,
0,0,0,0,15,0,15,0,,,,,,,,,,,,,428.1222065000002,,,,,,,,428.1090422999987,433.10623179999857,433.10624259999895,433.12230949999866,445.1893091999991,445.10699209999984,3,inactive,44.5,445.10700670000006,448.2596988999994,63.99999999999992,3.08,,,,,,,,,,,,,,,,,,,,,,,,,,,,,,,,,,,,,,sub-008,44.5,42.1,45.3,COM3,2024-01-29_11h08.46.110,2024_RDpaindiscrimination_maintask,2023.2.3,60.00686478564706,2024-01-29 11h09.22.758398 -0500,
0,0,0,0,,,,,0,0,0,0,0,0,0,0,,,,,496.4405408999992,,,,,,484.7419857999994,496.4248606000001,,,,,,,0,inactive,44.5,513.4252727999992,516.4605783999996,2.4999999999999964,2.964,448.26075200000014,448.2728118999985,484.7412900999989,496.42549599999984,501.4245820999986,501.4245941999998,501.4406784999992,513.5076475999995,513.4252595999988,,,,,,,,,,,,,,,,,,,,,,,,,,,,,sub-008,44.5,42.1,45.3,COM3,2024-01-29_11h08.46.110,2024_RDpaindiscrimination_maintask,2023.2.3,60.00686478564706,2024-01-29 11h09.22.758398 -0500,
0,0,0,0,,,,,0,0,0,0,1,0,1,0,,,,,516.4743843999986,,,,,,,,,,,,,,1,active,44.5,533.4594644999997,536.2777932999998,25.500000000000014,2.733,,,,516.4611319999985,521.4583595999993,521.4583711999985,521.4745062999991,533.5581411999992,533.4594275999989,,,,,,,,,,,,,,,,,,,,,,,,,,,,,sub-008,44.5,42.1,45.3,COM3,2024-01-29_11h08.46.110,2024_RDpaindiscrimination_maintask,2023.2.3,60.00686478564706,2024-01-29 11h09.22.758398 -0500,
0,0,0,0,,,,,0,0,0,0,,,,,0,0,0,0,542.4250211999988,,,,,,,,,,,,,,2,active,,,,,,,,,,,,,,,536.2787162999994,542.4093458999996,542.4100088999985,547.4089651999984,547.4089779999995,547.4251492999992,554.9086651999987,554.9086651999987,557.9087366999993,557.9087366999993,558.3754159,558.3592222999996,3.77,5.03,377,503,7.5,1.2,0.75,pic-present,1,m,0.49571839999953227,None,,,,,sub-008,44.5,42.1,45.3,COM3,2024-01-29_11h08.46.110,2024_RDpaindiscrimination_maintask,2023.2.3,60.00686478564706,2024-01-29 11h09.22.758398 -0500,
0,0,0,0,,,,,0,0,0,0,,,,,1,0,1,0,558.3754159,,,,,,,,,,,,,,3,inactive,,,,,,,,,,,,,,,,,558.3612400000002,563.3594228999991,563.3594361999985,563.3755339999989,570.875720099999,570.875720099999,573.8757747,573.8757747,574.3258028,574.3095990999991,3.3,5.5,330,550,7.5,1.2,0.75,pic-present,1,m,0.4249557000002824,None,,,,,sub-008,44.5,42.1,45.3,COM3,2024-01-29_11h08.46.110,2024_RDpaindiscrimination_maintask,2023.2.3,60.00686478564706,2024-01-29 11h09.22.758398 -0500,
0,0,0,0,,,,,0,0,0,0,,,,,2,0,2,0,574.3258028,,,,,,,,,,,,,,0,inactive,,,,,,,,,,,,,,,,,574.311165699999,579.309733,579.3097453999999,579.3259110999988,586.8260949999985,586.8260949999985,589.8261831,589.8261831,590.2761988000002,590.2600938999985,3.51,5.29,351,529,7.5,1.2,0.75,pic-absent,0,n,0.4183520000005956,None,,,,,sub-008,44.5,42.1,45.3,COM3,2024-01-29_11h08.46.110,2024_RDpaindiscrimination_maintask,2023.2.3,60.00686478564706,2024-01-29 11h09.22.758398 -0500,
0,0,0,0,,,,,0,0,0,0,,,,,3,0,3,0,590.2761988000002,,,,,,,,,,,,,,1,active,,,,,,,,,,,,,,,,,590.2616620999997,595.2601954000002,595.2602080999986,595.2763235999992,602.7765061999999,602.7765061999999,605.7765827999992,605.7765827999992,606.2265910999995,606.2104803999991,3.93,4.87,393,487,7.5,1.2,0.75,pic-present,1,m,0.4158732999985659,None,,,,,sub-008,44.5,42.1,45.3,COM3,2024-01-29_11h08.46.110,2024_RDpaindiscrimination_maintask,2023.2.3,60.00686478564706,2024-01-29 11h09.22.758398 -0500,
0,0,0,0,,,,,1,0,1,0,0,0,0,0,,,,,608.7766362999992,,,,,,606.2120785999996,608.7611206999991,,,,,,,2,active,44.5,625.7613283999999,629.7468515,0.5000000000001295,3.915,,,,608.7617484999992,613.7606187000001,613.7606307999995,613.7767829999993,625.8437436999993,625.7613167,,,,,,,,,,,,,,,,,,,,,,,,,,,,,sub-008,44.5,42.1,45.3,COM3,2024-01-29_11h08.46.110,2024_RDpaindiscrimination_maintask,2023.2.3,60.00686478564706,2024-01-29 11h09.22.758398 -0500,
0,0,0,0,,,,,1,0,1,0,1,0,1,0,,,,,629.760485499999,,,,,,,,,,,,,,3,inactive,44.5,646.7451572999998,649.2471421999999,15.000000000000032,2.43,,,,629.7473928,634.7445305000001,634.7445424999987,634.7606118999993,646.8275937999988,646.7451454999991,,,,,,,,,,,,,,,,,,,,,,,,,,,,,sub-008,44.5,42.1,45.3,COM3,2024-01-29_11h08.46.110,2024_RDpaindiscrimination_maintask,2023.2.3,60.00686478564706,2024-01-29 11h09.22.758398 -0500,
0,0,0,0,,,,,1,0,1,0,,,,,0,0,0,0,654.6944337999994,,,,,,,,,,,,,,0,inactive,,,,,,,,,,,,,,,649.2475094999991,654.6787415999988,654.6794175999985,659.678383299999,659.6783954000002,659.6945526999989,667.1781955999995,667.1781955999995,670.1781481999988,670.1781481999988,670.6448251000002,670.628729099999,3.52,5.28,352,528,7.5,1.2,0.75,pic-absent,0,n,0.8069883999996819,None,,,,,sub-008,44.5,42.1,45.3,COM3,2024-01-29_11h08.46.110,2024_RDpaindiscrimination_maintask,2023.2.3,60.00686478564706,2024-01-29 11h09.22.758398 -0500,
0,0,0,0,,,,,1,0,1,0,,,,,1,0,1,0,670.6448251000002,,,,,,,,,,,,,,1,inactive,,,,,,,,,,,,,,,,,670.630461499999,675.6287694000002,675.628781899999,675.6449436999992,683.1451511999985,683.1451511999985,686.1452049999989,686.1452049999989,686.5952204999994,686.5791207000002,4.09,4.71,409,471,7.5,1.2,0.75,pic-absent,0,n,0.8353583999996772,None,,,,,sub-008,44.5,42.1,45.3,COM3,2024-01-29_11h08.46.110,2024_RDpaindiscrimination_maintask,2023.2.3,60.00686478564706,2024-01-29 11h09.22.758398 -0500,
0,0,0,0,,,,,1,0,1,0,,,,,2,0,2,0,686.5952204999994,,,,,,,,,,,,,,2,active,,,,,,,,,,,,,,,,,686.5806920999985,691.5792506999987,691.5792635999987,691.5953424999989,699.0955058,699.0955058,702.0955973,702.0955973,702.5456080999993,702.5296363999987,3.32,5.48,332,548,7.5,1.2,0.75,pic-present,0,n,0.8289547999993374,None,,,,,sub-008,44.5,42.1,45.3,COM3,2024-01-29_11h08.46.110,2024_RDpaindiscrimination_maintask,2023.2.3,60.00686478564706,2024-01-29 11h09.22.758398 -0500,
0,0,0,0,,,,,1,0,1,0,,,,,3,0,3,0,702.5456080999993,,,,,,,,,,,,,,3,inactive,,,,,,,,,,,,,,,,,702.5312140999995,707.5295546999987,707.5295678000002,707.5457315999993,715.0459343000002,715.0459343000002,718.0459891999999,718.0459891999999,718.495982299999,718.4798955999995,4.24,4.56,424,455,7.5,1.2,0.75,pic-present,1,m,0.4027719000005163,None,,,,,sub-008,44.5,42.1,45.3,COM3,2024-01-29_11h08.46.110,2024_RDpaindiscrimination_maintask,2023.2.3,60.00686478564706,2024-01-29 11h09.22.758398 -0500,
0,0,0,0,,,,,2,0,2,0,0,0,0,0,,,,,720.7793872000002,,,,,,718.4815153,720.763801699999,,,,,,,0,inactive,44.5,737.7641210999991,740.6828262999989,5.000000000000058,2.848,,,,720.7644421999994,725.7634259999995,725.7634385000001,725.779518899999,737.8464788000001,737.7641095999988,,,,,,,,,,,,,,,,,,,,,,,,,,,,,sub-008,44.5,42.1,45.3,COM3,2024-01-29_11h08.46.110,2024_RDpaindiscrimination_maintask,2023.2.3,60.00686478564706,2024-01-29 11h09.22.758398 -0500,
0,0,0,0,,,,,2,0,2,0,1,0,1,0,,,,,740.6965476999994,,,,,,,,,,,,,,1,active,44.5,757.6812143999996,760.6826022999994,4.000000000000058,2.931,,,,740.6833732999985,745.6805165999995,745.6805282999994,745.6966611999997,757.7636554000001,757.6812021999995,,,,,,,,,,,,,,,,,,,,,,,,,,,,,sub-008,44.5,42.1,45.3,COM3,2024-01-29_11h08.46.110,2024_RDpaindiscrimination_maintask,2023.2.3,60.00686478564706,2024-01-29 11h09.22.758398 -0500,
0,0,0,0,,,,,2,0,2,0,,,,,0,0,0,0,765.2305035999998,,,,,,,,,,,,,,2,active,,,,,,,,,,,,,,,760.6830622999987,765.2147556999989,765.215403799999,770.2144681999998,770.2144809999991,770.2306098999998,777.7141226999993,777.7141226999993,780.7142026999991,780.7142026999991,781.1808956999994,781.1647795999997,3.44,5.36,344,536,7.5,1.2,0.75,pic-absent,0,n,1.4859964000006585,None,,,,,sub-008,44.5,42.1,45.3,COM3,2024-01-29_11h08.46.110,2024_RDpaindiscrimination_maintask,2023.2.3,60.00686478564706,2024-01-29 11h09.22.758398 -0500,
0,0,0,0,,,,,2,0,2,0,,,,,1,0,1,0,781.1808956999994,,,,,,,,,,,,,,3,active,,,,,,,,,,,,,,,,,781.1664939999991,786.1648415,786.1648547999994,786.1809870999987,793.6811832999992,793.6811832999992,796.6812749000001,796.6812749000001,797.1312680999999,797.1151672999986,3.54,5.26,354,526,7.5,1.2,0.75,pic-present,1,m,0.3830909000007523,None,,,,,sub-008,44.5,42.1,45.3,COM3,2024-01-29_11h08.46.110,2024_RDpaindiscrimination_maintask,2023.2.3,60.00686478564706,2024-01-29 11h09.22.758398 -0500,
0,0,0,0,,,,,2,0,2,0,,,,,2,0,2,0,797.1312680999999,,,,,,,,,,,,,,0,inactive,,,,,,,,,,,,,,,,,797.1167374999986,802.1152517999999,802.1152646999999,802.1313965999998,809.6315735999997,809.6315735999997,812.6316682999986,812.6316682999986,813.0816624999989,813.0655818999985,4.23,4.57,423,457,7.5,1.2,0.75,pic-present,1,m,0.38067229999978736,None,,,,,sub-008,44.5,42.1,45.3,COM3,2024-01-29_11h08.46.110,2024_RDpaindiscrimination_maintask,2023.2.3,60.00686478564706,2024-01-29 11h09.22.758398 -0500,
0,0,0,0,,,,,2,0,2,0,,,,,3,0,3,0,813.0816624999989,,,,,,,,,,,,,,1,active,,,,,,,,,,,,,,,,,813.0672777,818.0655988999988,818.0656116999999,818.0817836999995,825.5819539999993,825.5819539999993,828.5820630999988,828.5820630999988,829.0320520999994,829.0158524999988,3.42,5.38,342,538,7.5,1.2,0.75,pic-absent,0,n,2.254257399999915,None,,,,,sub-008,44.5,42.1,45.3,COM3,2024-01-29_11h08.46.110,2024_RDpaindiscrimination_maintask,2023.2.3,60.00686478564706,2024-01-29 11h09.22.758398 -0500,
0,0,0,0,,,,,3,0,3,0,0,0,0,0,,,,,831.8988075999987,,,,,,829.0174711,831.8830382999986,,,,,,,2,active,44.5,848.8836028999995,854.8182044999994,1.0000000000001295,5.864,,,,831.8836654999996,836.8828061999993,836.8828183999995,836.8989127999994,848.9658903999989,848.883590899999,,,,,,,,,,,,,,,,,,,,,,,,,,,,,sub-008,44.5,42.1,45.3,COM3,2024-01-29_11h08.46.110,2024_RDpaindiscrimination_maintask,2023.2.3,60.00686478564706,2024-01-29 11h09.22.758398 -0500,
0,0,0,0,,,,,3,0,3,0,1,0,1,0,,,,,854.8328279999987,,,,,,,,,,,,,,3,inactive,44.5,871.8331725999997,873.9860712999998,57.49999999999997,2.083,,,,854.8193112999998,859.8167448999993,859.8167568999997,859.8495065999996,,871.8331605999992,,,,,,,,,,,,,,,,,,,,,,,,,,,,,sub-008,44.5,42.1,45.3,COM3,2024-01-29_11h08.46.110,2024_RDpaindiscrimination_maintask,2023.2.3,60.00686478564706,2024-01-29 11h09.22.758398 -0500,
0,0,0,0,,,,,3,0,3,0,,,,,0,0,0,0,877.0332328999993,,,,,,,,,,,,,,0,inactive,,,,,,,,,,,,,,,873.9869874999986,877.0177038000002,877.0183573999984,882.017224199999,882.0172366999996,882.0333618999994,889.5168861999991,889.5168861999991,892.5169319999986,892.5169319999986,892.9836440999989,892.9675706999988,4.11,4.69,411,469,7.5,1.2,0.75,pic-present,1,m,0.7356498000008287,None,,,,,sub-008,44.5,42.1,45.3,COM3,2024-01-29_11h08.46.110,2024_RDpaindiscrimination_maintask,2023.2.3,60.00686478564706,2024-01-29 11h09.22.758398 -0500,
0,0,0,0,,,,,3,0,3,0,,,,,1,0,1,0,892.9836440999989,,,,,,,,,,,,,,1,active,,,,,,,,,,,,,,,,,892.9692973000001,897.9676609999988,897.9676736999991,897.983755199999,905.4839550999986,905.4839550999986,908.4840091999995,908.4840091999995,908.9340364999989,908.917847499999,3.7,5.1,370,509,7.5,1.2,0.75,pic-absent,1,m,0.42813740000019607,None,,,,,sub-008,44.5,42.1,45.3,COM3,2024-01-29_11h08.46.110,2024_RDpaindiscrimination_maintask,2023.2.3,60.00686478564706,2024-01-29 11h09.22.758398 -0500,
0,0,0,0,,,,,3,0,3,0,,,,,2,0,2,0,908.9340364999989,,,,,,,,,,,,,,2,active,,,,,,,,,,,,,,,,,908.9195521000001,913.9179614999994,913.9179745000001,913.9341456000002,921.4343467999988,921.4343467999988,924.4344079000002,924.4344079000002,924.8844286999993,924.8682503999989,3.77,5.03,377,503,7.5,1.2,0.75,pic-absent,0,n,0.5222272999999404,None,,,,,sub-008,44.5,42.1,45.3,COM3,2024-01-29_11h08.46.110,2024_RDpaindiscrimination_maintask,2023.2.3,60.00686478564706,2024-01-29 11h09.22.758398 -0500,
0,0,0,0,,,,,3,0,3,0,,,,,3,0,3,0,924.8844286999993,,,,,,,,,,,,,,3,inactive,,,,,,,,,,,,,,,,,924.8698065999997,929.868348,929.8683607999992,929.8845382999989,937.3847009000001,937.3847009000001,940.3848091999989,940.3848091999989,940.8681631999989,940.8186460999987,3.37,5.43,337,543,7.5,1.2,0.75,pic-absent,0,n,0.7520017999995616,None,,,,,sub-008,44.5,42.1,45.3,COM3,2024-01-29_11h08.46.110,2024_RDpaindiscrimination_maintask,2023.2.3,60.00686478564706,2024-01-29 11h09.22.758398 -0500,
1,0,1,0,0,0,0,0,,,,,,,,,,,,,1008.3531562999997,,,,1003.8375898999984,1006.8042651999986,1006.8042792999986,1008.3374699999986,1008.3381216999987,1013.337186499999,1013.337198199999,1013.3532588999988,1025.4369181999991,1025.3379342999997,0,active,44.5,1025.3379483999997,1028.2737564,0.0,2.853,,,,,,,,,,,,,,,,,,,,,,,,,,,,,,,,,,940.8200671999984,1003.8373121999994,,,sub-008,44.5,42.1,45.3,COM3,2024-01-29_11h08.46.110,2024_RDpaindiscrimination_maintask,2023.2.3,60.00686478564706,2024-01-29 11h09.22.758398 -0500,
1,0,1,0,1,0,1,0,,,,,,,,,,,,,1028.2869751999988,,,,,,,,1028.2751845999992,1033.2709974999998,1033.2710088999993,1033.2870900999987,1045.3540483999986,1045.2716949999995,1,active,44.5,1045.2717091999984,1048.3063304999996,3.0000000000000937,2.964,,,,,,,,,,,,,,,,,,,,,,,,,,,,,,,,,,,,,,sub-008,44.5,42.1,45.3,COM3,2024-01-29_11h08.46.110,2024_RDpaindiscrimination_maintask,2023.2.3,60.00686478564706,2024-01-29 11h09.22.758398 -0500,
1,0,1,0,2,0,2,0,,,,,,,,,,,,,1048.3208232999987,,,,,,,,1048.3069263999987,1053.3048162999985,1053.3048276999998,1053.3209278999984,1065.3878888,1065.3054365999997,2,inactive,44.5,1065.3054539999994,1069.3070071999991,0.0,3.928,,,,,,,,,,,,,,,,,,,,,,,,,,,,,,,,,,,,,,sub-008,44.5,42.1,45.3,COM3,2024-01-29_11h08.46.110,2024_RDpaindiscrimination_maintask,2023.2.3,60.00686478564706,2024-01-29 11h09.22.758398 -0500,
1,0,1,0,3,0,3,0,,,,,,,,,,,,,1069.3379929999992,,,,,,,,1069.3087459999988,1074.3214959999987,1074.321506799999,1074.3381097000001,,1086.3217810999995,3,inactive,44.5,1086.321794899999,1088.6234078999987,27.99999999999998,2.231,,,,,,,,,,,,,,,,,,,,,,,,,,,,,,,,,,,,,,sub-008,44.5,42.1,45.3,COM3,2024-01-29_11h08.46.110,2024_RDpaindiscrimination_maintask,2023.2.3,60.00686478564706,2024-01-29 11h09.22.758398 -0500,
1,0,1,0,4,0,4,0,,,,,,,,,,,,,1088.6384624999992,,,,,,,,1088.6239962,1093.622483199999,1093.6224939999993,1093.6385647999996,1105.7055244999992,1105.6231897999987,0,active,44.5,1105.6232037999998,1108.274398399999,0.0,2.58,,,,,,,,,,,,,,,,,,,,,,,,,,,,,,,,,,,,,,sub-008,44.5,42.1,45.3,COM3,2024-01-29_11h08.46.110,2024_RDpaindiscrimination_maintask,2023.2.3,60.00686478564706,2024-01-29 11h09.22.758398 -0500,
1,0,1,0,5,0,5,0,,,,,,,,,,,,,1108.288921199999,,,,,,,,1108.2749934999993,1113.2728959999986,1113.2729069999987,1113.289072399999,1125.3560282999988,1125.2735611999997,1,inactive,44.5,1125.273575199999,1127.2759664999994,4.999999999999988,1.932,,,,,,,,,,,,,,,,,,,,,,,,,,,,,,,,,,,,,,sub-008,44.5,42.1,45.3,COM3,2024-01-29_11h08.46.110,2024_RDpaindiscrimination_maintask,2023.2.3,60.00686478564706,2024-01-29 11h09.22.758398 -0500,
1,0,1,0,6,0,6,0,,,,,,,,,,,,,1127.3061159999997,,,,,,,,1127.2777135999986,1132.2895986999993,1132.2896089999995,1132.3061818999995,,1144.289856899999,2,inactive,44.5,1144.2898706999986,1147.8923278000002,78.49999999999979,3.531,,,,,,,,,,,,,,,,,,,,,,,,,,,,,,,,,,,,,,sub-008,44.5,42.1,45.3,COM3,2024-01-29_11h08.46.110,2024_RDpaindiscrimination_maintask,2023.2.3,60.00686478564706,2024-01-29 11h09.22.758398 -0500,
1,0,1,0,7,0,7,0,,,,,,,,,,,,,1147.9065990999989,,,,,,,,1147.8930034999994,1152.890612699999,1152.8906234999995,1152.9066876999987,1164.9736715999989,1164.8915423999988,3,active,44.5,1164.8915564999988,1167.1765551999997,27.99999999999998,2.214,,,,,,,,,,,,,,,,,,,,,,,,,,,,,,,,,,,,,,sub-008,44.5,42.1,45.3,COM3,2024-01-29_11h08.46.110,2024_RDpaindiscrimination_maintask,2023.2.3,60.00686478564706,2024-01-29 11h09.22.758398 -0500,
1,0,1,0,8,0,8,0,,,,,,,,,,,,,1167.190391099999,,,,,,,,1167.1771341999993,1172.1743670999986,1172.1743784999999,1172.1904923000002,1184.2574766999987,1184.1751307999984,0,inactive,44.5,1184.1751451,1186.5099882999984,42.49999999999996,2.264,,,,,,,,,,,,,,,,,,,,,,,,,,,,,,,,,,,,,,sub-008,44.5,42.1,45.3,COM3,2024-01-29_11h08.46.110,2024_RDpaindiscrimination_maintask,2023.2.3,60.00686478564706,2024-01-29 11h09.22.758398 -0500,
1,0,1,0,9,0,9,0,,,,,,,,,,,,,1186.5241943,,,,,,,,1186.5111185999995,1191.5082205999988,1191.5082318999994,1191.5243183000002,1203.5912836999996,1203.5089475999994,1,inactive,44.5,1203.5089618999991,1206.710658599999,3.500000000000058,3.13,,,,,,,,,,,,,,,,,,,,,,,,,,,,,,,,,,,,,,sub-008,44.5,42.1,45.3,COM3,2024-01-29_11h08.46.110,2024_RDpaindiscrimination_maintask,2023.2.3,60.00686478564706,2024-01-29 11h09.22.758398 -0500,
1,0,1,0,10,0,10,0,,,,,,,,,,,,,1206.7413750999985,,,,,,,,1206.7124126999988,1211.7248664999988,1211.7248770999995,1211.741480999999,,1223.725168699999,2,active,44.5,1223.7251832000002,1227.6112979999998,0.0,3.816,,,,,,,,,,,,,,,,,,,,,,,,,,,,,,,,,,,,,,sub-008,44.5,42.1,45.3,COM3,2024-01-29_11h08.46.110,2024_RDpaindiscrimination_maintask,2023.2.3,60.00686478564706,2024-01-29 11h09.22.758398 -0500,
1,0,1,0,11,0,11,0,,,,,,,,,,,,,1227.6420153999989,,,,,,,,1227.6130197000002,1232.6253927999987,1232.6254031999997,1232.641975299999,,1244.6256627999992,3,active,44.5,1244.6256773999994,1248.0443125000002,4.000000000000058,3.348,,,,,,,,,,,,,,,,,,,,,,,,,,,,,,,,,,,,,,sub-008,44.5,42.1,45.3,COM3,2024-01-29_11h08.46.110,2024_RDpaindiscrimination_maintask,2023.2.3,60.00686478564706,2024-01-29 11h09.22.758398 -0500,
1,0,1,0,12,0,12,0,,,,,,,,,,,,,1248.0591538999997,,,,,,,,1248.0454104,1253.0430502999989,1253.0430610999992,1253.0591415,1265.1261086999984,1265.0437518999988,0,inactive,44.5,1265.043766499999,1268.9962309000002,14.000000000000208,3.882,,,,,,,,,,,,,,,,,,,,,,,,,,,,,,,,,,,,,,sub-008,44.5,42.1,45.3,COM3,2024-01-29_11h08.46.110,2024_RDpaindiscrimination_maintask,2023.2.3,60.00686478564706,2024-01-29 11h09.22.758398 -0500,
1,0,1,0,13,0,13,0,,,,,,,,,,,,,1269.0262633999992,,,,,,,,1268.9979398999985,1274.0097224,1274.0097331999987,1274.0263239999986,,1286.010022999999,1,active,44.5,1286.0100375000002,1288.6125873,1.500000000000023,2.532,,,,,,,,,,,,,,,,,,,,,,,,,,,,,,,,,,,,,,sub-008,44.5,42.1,45.3,COM3,2024-01-29_11h08.46.110,2024_RDpaindiscrimination_maintask,2023.2.3,60.00686478564706,2024-01-29 11h09.22.758398 -0500,
1,0,1,0,14,0,14,0,,,,,,,,,,,,,1288.6434000999998,,,,,,,,1288.6143262999994,1293.626874399999,1293.6268849999997,1293.6434699000001,,1305.6271610999993,2,active,44.5,1305.6271746999992,1307.1301828999985,0.0,1.433,,,,,,,,,,,,,,,,,,,,,,,,,,,,,,,,,,,,,,sub-008,44.5,42.1,45.3,COM3,2024-01-29_11h08.46.110,2024_RDpaindiscrimination_maintask,2023.2.3,60.00686478564706,2024-01-29 11h09.22.758398 -0500,
1,0,1,0,15,0,15,0,,,,,,,,,,,,,1307.160592799999,,,,,,,,1307.1318944999985,1312.1440153999993,1312.1440256999995,1312.160615499999,,1324.1443001999996,3,inactive,44.5,1324.1443149999996,1328.2642366,83.49999999999983,4.032,,,,,,,,,,,,,,,,,,,,,,,,,,,,,,,,,,,,,,sub-008,44.5,42.1,45.3,COM3,2024-01-29_11h08.46.110,2024_RDpaindiscrimination_maintask,2023.2.3,60.00686478564706,2024-01-29 11h09.22.758398 -0500,
1,0,1,0,,,,,0,0,0,0,0,0,0,0,,,,,1343.6446985000002,,,,,,1342.4293306,1343.6291659999988,,,,,,,0,active,44.5,1360.629382699999,1364.0316429999984,16.000000000000174,3.332,1328.2652988999998,1328.2777780999986,1342.4285844999995,1343.6297699999996,1348.6287507999987,1348.628762799999,1348.6448464999994,1360.7118128999991,1360.6293692999989,,,,,,,,,,,,,,,,,,,,,,,,,,,,,sub-008,44.5,42.1,45.3,COM3,2024-01-29_11h08.46.110,2024_RDpaindiscrimination_maintask,2023.2.3,60.00686478564706,2024-01-29 11h09.22.758398 -0500,
1,0,1,0,,,,,0,0,0,0,1,0,1,0,,,,,1364.0619122999997,,,,,,,,,,,,,,1,inactive,44.5,1381.0457025999985,1384.6326716999993,39.500000000000014,3.515,,,,1364.033261999999,1369.045387799999,1369.0453991999984,1369.0619926999989,,1381.045689999999,,,,,,,,,,,,,,,,,,,,,,,,,,,,,sub-008,44.5,42.1,45.3,COM3,2024-01-29_11h08.46.110,2024_RDpaindiscrimination_maintask,2023.2.3,60.00686478564706,2024-01-29 11h09.22.758398 -0500,
1,0,1,0,,,,,0,0,0,0,,,,,0,0,0,0,1388.595798799999,,,,,,,,,,,,,,2,inactive,,,,,,,,,,,,,,,1384.6335933999999,1388.5800917999986,1388.580754999999,1393.5797698999995,1393.579782499999,1393.5959422999986,1401.0794396000001,1401.0794396000001,1404.0795325999989,1404.0795325999989,1404.5462073999988,1404.5300408999992,3.58,5.22,358,522,7.5,1.2,0.75,pic-absent,0,n,0.804608600001302,None,,,,,sub-008,44.5,42.1,45.3,COM3,2024-01-29_11h08.46.110,2024_RDpaindiscrimination_maintask,2023.2.3,60.00686478564706,2024-01-29 11h09.22.758398 -0500,
1,0,1,0,,,,,0,0,0,0,,,,,1,0,1,0,1404.5462073999988,,,,,,,,,,,,,,3,inactive,,,,,,,,,,,,,,,,,1404.5317749999995,1409.5301823999998,1409.5301952999998,1409.5463146000002,1417.0465009,1417.0465009,1420.0466966999993,1420.0466966999993,1420.4965870999986,1420.4805027999992,3.93,4.87,393,487,7.5,1.2,0.75,pic-present,1,m,0.40958580000005895,None,,,,,sub-008,44.5,42.1,45.3,COM3,2024-01-29_11h08.46.110,2024_RDpaindiscrimination_maintask,2023.2.3,60.00686478564706,2024-01-29 11h09.22.758398 -0500,
1,0,1,0,,,,,0,0,0,0,,,,,2,0,2,0,1420.4965870999986,,,,,,,,,,,,,,0,active,,,,,,,,,,,,,,,,,1420.4820713999998,1425.4805750999985,1425.4805877999988,1425.4967066999998,1432.996889,1432.996889,1435.9969672999996,1435.9969672999996,1436.446973799999,1436.4308040999986,4.21,4.59,421,459,7.5,1.2,0.75,pic-absent,0,n,0.779215499998827,None,,,,,sub-008,44.5,42.1,45.3,COM3,2024-01-29_11h08.46.110,2024_RDpaindiscrimination_maintask,2023.2.3,60.00686478564706,2024-01-29 11h09.22.758398 -0500,
1,0,1,0,,,,,0,0,0,0,,,,,3,0,3,0,1436.446973799999,,,,,,,,,,,,,,1,inactive,,,,,,,,,,,,,,,,,1436.4323635,1441.4310280999998,1441.4310410999988,1441.4471862999999,1448.9472936000002,1448.9472936000002,1451.9473699999999,1451.9473699999999,1452.3973647999992,1452.3812694999997,3.71,5.09,371,509,7.5,1.2,0.75,pic-absent,0,n,0.9641169999995327,None,,,,,sub-008,44.5,42.1,45.3,COM3,2024-01-29_11h08.46.110,2024_RDpaindiscrimination_maintask,2023.2.3,60.00686478564706,2024-01-29 11h09.22.758398 -0500,
1,0,1,0,,,,,1,0,1,0,0,0,0,0,,,,,1454.1307596999995,,,,,,1452.3828735999996,1454.1150565999997,,,,,,,2,inactive,44.5,1471.1154967000002,1473.233033299999,9.500000000000027,2.047,,,,1454.115686699999,1459.1148018999993,1459.1148144999988,1459.1308592999994,1471.1978430999989,1471.1154855999994,,,,,,,,,,,,,,,,,,,,,,,,,,,,,sub-008,44.5,42.1,45.3,COM3,2024-01-29_11h08.46.110,2024_RDpaindiscrimination_maintask,2023.2.3,60.00686478564706,2024-01-29 11h09.22.758398 -0500,
1,0,1,0,,,,,1,0,1,0,1,0,1,0,,,,,1473.247899099999,,,,,,,,,,,,,,3,active,44.5,1490.2326550999987,1493.7335427999988,58.99999999999987,3.43,,,,1473.2335807,1478.2318245999995,1478.2318363999984,1478.2479998,1490.314975899999,1490.2326429999994,,,,,,,,,,,,,,,,,,,,,,,,,,,,,sub-008,44.5,42.1,45.3,COM3,2024-01-29_11h08.46.110,2024_RDpaindiscrimination_maintask,2023.2.3,60.00686478564706,2024-01-29 11h09.22.758398 -0500,
1,0,1,0,,,,,1,0,1,0,,,,,0,0,0,0,1496.165104399999,,,,,,,,,,,,,,0,active,,,,,,,,,,,,,,,1493.7338707,1496.149587599999,1496.1502446999984,1501.149055599999,1501.1490677000002,1501.1652422999996,1508.6487350999996,1508.6487350999996,1511.6488324000002,1511.6488324000002,1512.1155072000001,1512.099304899999,4.05,4.75,405,475,7.5,1.2,0.75,pic-present,1,m,0.35884230000010575,None,,,,,sub-008,44.5,42.1,45.3,COM3,2024-01-29_11h08.46.110,2024_RDpaindiscrimination_maintask,2023.2.3,60.00686478564706,2024-01-29 11h09.22.758398 -0500,
1,0,1,0,,,,,1,0,1,0,,,,,1,0,1,0,1512.1155072000001,,,,,,,,,,,,,,1,active,,,,,,,,,,,,,,,,,1512.1010642,1517.0995198,1517.0995323999996,1517.1156302999989,1524.6158139999989,1524.6158139999989,1527.6158981999997,1527.6158981999997,1528.0658936,1528.0498112999994,3.76,5.04,376,504,7.5,1.2,0.75,pic-absent,0,n,0.7603168000005098,None,,,,,sub-008,44.5,42.1,45.3,COM3,2024-01-29_11h08.46.110,2024_RDpaindiscrimination_maintask,2023.2.3,60.00686478564706,2024-01-29 11h09.22.758398 -0500,
1,0,1,0,,,,,1,0,1,0,,,,,2,0,2,0,1528.0658936,,,,,,,,,,,,,,2,inactive,,,,,,,,,,,,,,,,,1528.0514069,1533.0498278999985,1533.0498407999985,1533.0660209999987,1540.5661824,1540.5661824,1543.5662586999988,1543.5662586999988,1544.0162686999993,1544.0001582999994,3.44,5.36,344,536,7.5,1.2,0.75,pic-present,0,n,0.8058612999993784,None,,,,,sub-008,44.5,42.1,45.3,COM3,2024-01-29_11h08.46.110,2024_RDpaindiscrimination_maintask,2023.2.3,60.00686478564706,2024-01-29 11h09.22.758398 -0500,
1,0,1,0,,,,,1,0,1,0,,,,,3,0,3,0,1544.0162686999993,,,,,,,,,,,,,,3,inactive,,,,,,,,,,,,,,,,,1544.0017121,1549.0002077999998,1549.0002202999985,1549.0164152999987,1556.516574899999,1556.516574899999,1559.5166725999989,1559.5166725999989,1559.9666585999985,1559.950515999999,3.9,4.9,390,490,7.5,1.2,0.75,pic-present,1,m,0.3788392999995267,None,,,,,sub-008,44.5,42.1,45.3,COM3,2024-01-29_11h08.46.110,2024_RDpaindiscrimination_maintask,2023.2.3,60.00686478564706,2024-01-29 11h09.22.758398 -0500,
1,0,1,0,,,,,2,0,2,0,0,0,0,0,,,,,1562.4500757999995,,,,,,1559.9521284999992,1562.4343455999988,,,,,,,0,active,44.5,1579.4348296999997,1581.7038842000002,14.50000000000003,2.199,,,,1562.4349734999996,1567.4340171999993,1567.4340307000002,1567.4501919999984,1579.517160899999,1579.4348176999993,,,,,,,,,,,,,,,,,,,,,,,,,,,,,sub-008,44.5,42.1,45.3,COM3,2024-01-29_11h08.46.110,2024_RDpaindiscrimination_maintask,2023.2.3,60.00686478564706,2024-01-29 11h09.22.758398 -0500,
1,0,1,0,,,,,2,0,2,0,1,0,1,0,,,,,1581.733984999999,,,,,,,,,,,,,,1,inactive,44.5,1598.7176940999998,1601.8704988999998,31.00000000000014,3.083,,,,1581.7055376999997,1586.7173936999989,1586.7174049999994,1586.7339972999998,,1598.717682299999,,,,,,,,,,,,,,,,,,,,,,,,,,,,,sub-008,44.5,42.1,45.3,COM3,2024-01-29_11h08.46.110,2024_RDpaindiscrimination_maintask,2023.2.3,60.00686478564706,2024-01-29 11h09.22.758398 -0500,
1,0,1,0,,,,,2,0,2,0,,,,,0,0,0,0,1604.1010864,,,,,,,,,,,,,,2,active,,,,,,,,,,,,,,,1601.871430199999,1604.0855843999998,1604.0862399999987,1609.0850513999994,1609.0850635999996,1609.101211699999,1616.5847273999989,1616.5847273999989,1619.5847701999992,1619.5847701999992,1620.0514590999992,1620.0353763999992,4.1,4.7,409,470,7.5,1.2,0.75,pic-absent,0,n,0.9267263999990973,None,,,,,sub-008,44.5,42.1,45.3,COM3,2024-01-29_11h08.46.110,2024_RDpaindiscrimination_maintask,2023.2.3,60.00686478564706,2024-01-29 11h09.22.758398 -0500,
1,0,1,0,,,,,2,0,2,0,,,,,1,0,1,0,1620.0514590999992,,,,,,,,,,,,,,3,active,,,,,,,,,,,,,,,,,1620.0370943999988,1625.0355168999995,1625.035530199999,1625.0516920999999,1632.5517810000001,1632.5517810000001,1635.5518388,1635.5518388,1636.0018497,1635.985772599999,4.09,4.71,409,471,7.5,1.2,0.75,pic-present,1,m,0.4394860000011249,None,,,,,sub-008,44.5,42.1,45.3,COM3,2024-01-29_11h08.46.110,2024_RDpaindiscrimination_maintask,2023.2.3,60.00686478564706,2024-01-29 11h09.22.758398 -0500,
1,0,1,0,,,,,2,0,2,0,,,,,2,0,2,0,1636.0018497,,,,,,,,,,,,,,0,inactive,,,,,,,,,,,,,,,,,1635.987335599999,1640.9858036999995,1640.9858163999997,1641.0019905999998,1648.5021736999988,1648.5021736999988,1651.5023574999996,1651.5023574999996,1651.952255099999,1651.9360638999988,4.03,4.77,403,476,7.5,1.2,0.75,pic-absent,0,n,0.7613466000002518,None,,,,,sub-008,44.5,42.1,45.3,COM3,2024-01-29_11h08.46.110,2024_RDpaindiscrimination_maintask,2023.2.3,60.00686478564706,2024-01-29 11h09.22.758398 -0500,
1,0,1,0,,,,,2,0,2,0,,,,,3,0,3,0,1651.952255099999,,,,,,,,,,,,,,1,active,,,,,,,,,,,,,,,,,1651.9376426,1656.9363604999999,1656.9363736999985,1656.952371899999,1664.4525435999985,1664.4525435999985,1667.452615799999,1667.452615799999,1667.902628599999,1667.8865288999987,3.52,5.28,352,528,7.5,1.2,0.75,pic-present,1,m,0.378399500001251,None,,,,,sub-008,44.5,42.1,45.3,COM3,2024-01-29_11h08.46.110,2024_RDpaindiscrimination_maintask,2023.2.3,60.00686478564706,2024-01-29 11h09.22.758398 -0500,
1,0,1,0,,,,,3,0,3,0,0,0,0,0,,,,,1670.2026822999997,,,,,,1667.8881421999995,1670.1871997999988,,,,,,,2,inactive,44.5,1687.187427499999,1690.689882499999,8.000000000000096,3.432,,,,1670.1878406999986,1675.1866376999988,1675.1866503,1675.2028097000002,1687.2697872999997,1687.1874153999997,,,,,,,,,,,,,,,,,,,,,,,,,,,,,sub-008,44.5,42.1,45.3,COM3,2024-01-29_11h08.46.110,2024_RDpaindiscrimination_maintask,2023.2.3,60.00686478564706,2024-01-29 11h09.22.758398 -0500,
1,0,1,0,,,,,3,0,3,0,1,0,1,0,,,,,1690.719981799999,,,,,,,,,,,,,,3,active,44.5,1707.7036955999993,1710.7235683999988,54.00000000000002,2.948,,,,1690.6915101999984,1695.7033913999985,1695.7034035999986,1695.7199959999998,,1707.7036833000002,,,,,,,,,,,,,,,,,,,,,,,,,,,,,sub-008,44.5,42.1,45.3,COM3,2024-01-29_11h08.46.110,2024_RDpaindiscrimination_maintask,2023.2.3,60.00686478564706,2024-01-29 11h09.22.758398 -0500,
1,0,1,0,,,,,3,0,3,0,,,,,0,0,0,0,1713.370420199999,,,,,,,,,,,,,,0,inactive,,,,,,,,,,,,,,,1710.723905499999,1713.3548074999999,1713.3554680999987,1718.3543828000002,1718.3543952,1718.3872090999994,1725.8540606999995,1725.8540606999995,1728.854115799999,1728.854115799999,1729.3374704999987,1729.3213932999988,3.43,5.37,343,537,7.5,1.2,0.75,pic-present,1,m,0.5097299999997631,None,,,,,sub-008,44.5,42.1,45.3,COM3,2024-01-29_11h08.46.110,2024_RDpaindiscrimination_maintask,2023.2.3,60.00686478564706,2024-01-29 11h09.22.758398 -0500,
1,0,1,0,,,,,3,0,3,0,,,,,1,0,1,0,1729.3374704999987,,,,,,,,,,,,,,1,inactive,,,,,,,,,,,,,,,,,1729.3231134999987,1734.321437999999,1734.3214511999995,1734.337775,1741.8377850999987,1741.8377850999987,1744.8378630999996,1744.8378630999996,1745.2878708999997,1745.2716955999986,3.92,4.88,392,488,7.5,1.2,0.75,pic-absent,0,n,0.5694917000000714,None,,,,,sub-008,44.5,42.1,45.3,COM3,2024-01-29_11h08.46.110,2024_RDpaindiscrimination_maintask,2023.2.3,60.00686478564706,2024-01-29 11h09.22.758398 -0500,
1,0,1,0,,,,,3,0,3,0,,,,,2,0,2,0,1745.2878708999997,,,,,,,,,,,,,,2,active,,,,,,,,,,,,,,,,,1745.2732837999993,1750.2718812999992,1750.2718946999994,1750.2879900999997,1757.7881773999998,1757.7881773999998,1760.7882199999985,1760.7882199999985,1761.2382561999984,1761.2221092,4.15,4.65,415,465,7.5,1.2,0.75,pic-present,0,n,0.7518515000010666,None,,,,,sub-008,44.5,42.1,45.3,COM3,2024-01-29_11h08.46.110,2024_RDpaindiscrimination_maintask,2023.2.3,60.00686478564706,2024-01-29 11h09.22.758398 -0500,
1,0,1,0,,,,,3,0,3,0,,,,,3,0,3,0,1761.2382561999984,,,,,,,,,,,,,,3,active,,,,,,,,,,,,,,,,,1761.2236780999992,1766.2222005999993,1766.2222138999987,1766.2383847,1773.7385653000001,1773.7385653000001,1776.7386376999984,1776.7386376999984,1777.1886559999984,1777.1725544,3.81,4.99,381,499,7.5,1.2,0.75,pic-absent,0,n,0.8403390000003128,None,,,,,sub-008,44.5,42.1,45.3,COM3,2024-01-29_11h08.46.110,2024_RDpaindiscrimination_maintask,2023.2.3,60.00686478564706,2024-01-29 11h09.22.758398 -0500,
,,,,,,,,,,,,,,,,,,,,,,,,,,,,,,,,,,,,,,,,,,,,,,,,,,,,,,,,,,,,,,,,,,,,,,,,,,1777.1739769999986,1803.006894099999,1803.0069327,1813.0067361000001,,,,,,,,,,,
