trials.thisRepN,trials.thisTrialN,trials.thisN,trials.thisIndex,thisRow.t,notes,trial.started,trial.stopped,wait.started,wait.stopped,triggerrrs.started,thermode_locali_pic.started,percu_or.started,responser.started,thermode_locali_pic.stopped,percu_or.stopped,responser.stopped,triggerrrs.stopped,dur_plateau1,dur_plateau2,dur_plateau1_sent,dur_plateau2_sent,start_plateau_2_resp,start_detect_cue,dur_pic,dur_rise,temp_plateau_sent,loca_thermode,pic_sent,quest_intens,pic_response,discrimin_resp.keys,discrimin_resp.rt,discrimin_resp.duration,Cali_fin.started,text.started,text.stopped,Cali_fin.stopped,mean_6_reversals,pic_a_utiliser,threshold,participant,com_thermode,temp_plateau,date,expName,psychopyVersion,frameRate,expStart,
0,0,0,0,44.71993270004168,,0.0027969000511802733,44.70362440001918,44.7039894000045,49.70351630001096,49.70352320000529,49.72002780000912,57.7034492000239,57.7034492000239,59.92013630003203,60.70347890001722,60.70347890001722,60.68698060000315,3.39,5.41,339,541,8,3,1.2,0.75,463,0,471,0.8,1,n,1.3904547999845818,None,,,,,,,,sub-011,COM3,46.3,2024-02-02_10h53.02.760,2024_RDpaindiscrimination_QUEST,2023.2.3,60.00243610348505,2024-02-02 10h53.18.501306 -0500,
1,0,1,0,60.70347890001722,,,,60.6880956000532,65.68704129999969,65.68704760004766,65.70353480003541,73.6869660000084,73.6869660000084,75.90365260001272,76.68714980001096,76.68714980001096,76.67052170005627,3.6,5.2,360,520,8,3,1.2,0.75,463,1,467,0.4,1,n,0.4112889999523759,None,,,,,,,,sub-011,COM3,46.3,2024-02-02_10h53.02.760,2024_RDpaindiscrimination_QUEST,2023.2.3,60.00243610348505,2024-02-02 10h53.18.501306 -0500,
2,0,2,0,76.68714980001096,,,,76.67146380001213,81.67054570000619,81.67055249999976,81.68704720004462,89.67047590005677,89.67047590005677,91.88716800004477,92.67050990002463,92.67050990002463,92.65400150005007,4.61,4.19,461,419,8,3,1.2,0.75,463,2,466,0.3,0,m,0.3275582999922335,None,,,,,,,,sub-011,COM3,46.3,2024-02-02_10h53.02.760,2024_RDpaindiscrimination_QUEST,2023.2.3,60.00243610348505,2024-02-02 10h53.18.501306 -0500,
3,0,3,0,92.67050990002463,,,,92.65494040003978,97.6540617000428,97.65406860003714,97.67056700005196,105.65398930001538,105.65398930001538,107.87068760005059,108.65402510005515,108.65402510005515,108.63794930005679,3.83,4.97,383,497,8,3,1.2,0.75,463,3,469,0.6,1,n,0.3795599000295624,None,,,,,,,,sub-011,COM3,46.3,2024-02-02_10h53.02.760,2024_RDpaindiscrimination_QUEST,2023.2.3,60.00243610348505,2024-02-02 10h53.18.501306 -0500,
4,0,4,0,108.65402510005515,,,,108.63887250004336,113.63757240003906,113.63757890003035,113.65408450004179,121.65431040001567,121.65431040001567,123.85435770003824,124.6543274000287,124.6543274000287,124.63784490001854,4.23,4.57,423,457,8,3,1.2,0.75,463,0,469,0.6,1,n,0.3724921999964863,None,,,,,,,,sub-011,COM3,46.3,2024-02-02_10h53.02.760,2024_RDpaindiscrimination_QUEST,2023.2.3,60.00243610348505,2024-02-02 10h53.18.501306 -0500,
5,0,5,0,124.6543274000287,,,,124.63875480002025,129.6378722000518,129.63787830004003,129.6544260000228,137.63781850005034,137.63781850005034,139.8545076000155,140.63786160002928,140.63786160002928,140.62132720003137,3.58,5.22,358,522,8,3,1.2,0.75,463,1,467,0.39999999999999997,0,m,0.33693579997634515,None,,,,,,,,sub-011,COM3,46.3,2024-02-02_10h53.02.760,2024_RDpaindiscrimination_QUEST,2023.2.3,60.00243610348505,2024-02-02 10h53.18.501306 -0500,
6,0,6,0,140.63786160002928,,,,140.6222826000303,145.62139720004052,145.62140440003714,145.63788080000086,153.6213284000405,153.6213284000405,155.83797380002216,156.62136320001446,156.62136320001446,156.60488130000886,4.64,4.16,463,416,8,3,1.2,0.75,463,2,468,0.5,0,m,0.34424379997653887,None,,,,,,,,sub-011,COM3,46.3,2024-02-02_10h53.02.760,2024_RDpaindiscrimination_QUEST,2023.2.3,60.00243610348505,2024-02-02 10h53.18.501306 -0500,
7,0,7,0,156.62136320001446,,,,156.60583430004772,161.6049117000075,161.60491840000032,161.6214203000418,169.60484140005428,169.60484140005428,171.82152610004414,172.6048866000492,172.6048866000492,172.58835650002584,4.34,4.46,434,446,8,3,1.2,0.75,463,3,469,0.6,0,m,0.3539755999809131,None,,,,,,,,sub-011,COM3,46.3,2024-02-02_10h53.02.760,2024_RDpaindiscrimination_QUEST,2023.2.3,60.00243610348505,2024-02-02 10h53.18.501306 -0500,
8,0,8,0,172.6048866000492,,,,172.58925630000886,177.5884249000228,177.58843150001485,177.6048561000498,185.58835620002355,185.58835620002355,187.80504570004996,188.58838990004733,188.58838990004733,188.57197420002194,3.74,5.06,374,505,8,3,1.2,0.75,463,0,470,0.7,1,n,0.35878509999020025,None,,,,,,,,sub-011,COM3,46.3,2024-02-02_10h53.02.760,2024_RDpaindiscrimination_QUEST,2023.2.3,60.00243610348505,2024-02-02 10h53.18.501306 -0500,
9,0,9,0,188.58838990004733,,,,188.5729145000223,193.5721898000338,193.57219620002434,193.58845200005453,201.57187890005298,201.57187890005298,203.7885663000052,204.57189080002718,204.57189080002718,204.55542760004755,3.46,5.34,346,534,8,3,1.2,0.75,463,1,470,0.7,0,m,0.3709066999726929,None,,,,,,,,sub-011,COM3,46.3,2024-02-02_10h53.02.760,2024_RDpaindiscrimination_QUEST,2023.2.3,60.00243610348505,2024-02-02 10h53.18.501306 -0500,
10,0,10,0,204.57189080002718,,,,204.5564194000326,209.55536400002893,209.55537070002174,209.57198790000984,217.55538880004315,217.55538880004315,219.77208290004637,220.55538330000127,220.55538330000127,220.53889130003517,3.77,5.03,377,503,8,3,1.2,0.75,463,2,471,0.7999999999999999,0,m,0.37944440002320334,None,,,,,,,,sub-011,COM3,46.3,2024-02-02_10h53.02.760,2024_RDpaindiscrimination_QUEST,2023.2.3,60.00243610348505,2024-02-02 10h53.18.501306 -0500,
11,0,11,0,220.55538330000127,,,,220.5398638000479,225.5389937,225.539000400051,225.5554782000254,233.53891640005168,233.53891640005168,235.7555867000483,236.5389381000423,236.5389381000423,236.52242450002814,3.51,5.29,351,529,8,3,1.2,0.75,463,3,472,0.8999999999999999,1,n,0.3865178999840282,None,,,,,,,,sub-011,COM3,46.3,2024-02-02_10h53.02.760,2024_RDpaindiscrimination_QUEST,2023.2.3,60.00243610348505,2024-02-02 10h53.18.501306 -0500,
12,0,12,0,236.5389381000423,,,,236.52339230000507,241.5224924000213,241.5224994000164,241.53899740002817,249.52241600002162,249.52241600002162,251.73911080003018,252.52245400001993,252.52245400001993,252.50592960003996,3.37,5.43,337,543,8,3,1.2,0.75,463,0,472,0.8999999999999999,1,n,0.3470621000160463,None,,,,,,,,sub-011,COM3,46.3,2024-02-02_10h53.02.760,2024_RDpaindiscrimination_QUEST,2023.2.3,60.00243610348505,2024-02-02 10h53.18.501306 -0500,
13,0,13,0,252.52245400001993,,,,252.50687950005522,257.5060330000124,257.5060394000029,257.52245970000513,265.5059388000518,265.5059388000518,267.72262220003176,268.5059730000212,268.5059730000212,268.48948630003724,4.49,4.31,449,430,8,3,1.2,0.75,463,1,471,0.7999999999999999,1,n,0.4043227999936789,None,,,,,,,,sub-011,COM3,46.3,2024-02-02_10h53.02.760,2024_RDpaindiscrimination_QUEST,2023.2.3,60.00243610348505,2024-02-02 10h53.18.501306 -0500,
14,0,14,0,268.5059730000212,,,,268.49044720001984,273.4895174000412,273.48952410003403,273.50601480004843,281.4894567000447,281.4894567000447,283.70615530002397,284.48941930005094,284.48941930005094,284.4729882000247,4.09,4.71,409,471,8,3,1.2,0.75,463,2,471,0.7999999999999999,0,m,0.41595369996502995,None,,,,,,,,sub-011,COM3,46.3,2024-02-02_10h53.02.760,2024_RDpaindiscrimination_QUEST,2023.2.3,60.00243610348505,2024-02-02 10h53.18.501306 -0500,
15,0,15,0,284.48941930005094,,,,284.4739338000072,289.4730392000056,289.4730459000566,289.48955280001974,297.47288870002376,297.47288870002376,299.68967160000466,300.4730120000313,300.4730120000313,300.4565189999994,4.04,4.76,404,476,8,3,1.2,0.75,463,3,472,0.8999999999999999,1,n,0.32901819999096915,None,,,,,,,,sub-011,COM3,46.3,2024-02-02_10h53.02.760,2024_RDpaindiscrimination_QUEST,2023.2.3,60.00243610348505,2024-02-02 10h53.18.501306 -0500,
16,0,16,0,300.4730120000313,,,,300.4574294000049,305.4565565000521,305.4565632000449,305.47305400000187,313.4564812000026,313.4564812000026,315.6731814000523,316.45652840001276,316.45652840001276,316.44042790000094,4.65,4.15,465,415,8,3,1.2,0.75,463,0,472,0.8999999999999999,1,n,0.3849045999813825,None,,,,,,,,sub-011,COM3,46.3,2024-02-02_10h53.02.760,2024_RDpaindiscrimination_QUEST,2023.2.3,60.00243610348505,2024-02-02 10h53.18.501306 -0500,
17,0,17,0,316.45652840001276,,,,316.4414189000381,321.4400722000282,321.4400792000233,321.45658720005304,329.4566752000246,329.4566752000246,331.6567194000236,332.4567167000496,332.4567167000496,332.44022840005346,4.31,4.49,430,449,8,3,1.2,0.75,463,1,471,0.7999999999999999,0,m,0.33374780003214255,None,,,,,,,,sub-011,COM3,46.3,2024-02-02_10h53.02.760,2024_RDpaindiscrimination_QUEST,2023.2.3,60.00243610348505,2024-02-02 10h53.18.501306 -0500,
18,0,18,0,332.4567167000496,,,,332.44114120001905,337.4402831000043,337.44028920005076,337.4566497000051,345.4402092000237,345.4402092000237,347.65688790002605,348.4402321000234,348.4402321000234,348.4237441000296,4.21,4.59,421,459,8,3,1.2,0.75,463,2,472,0.8999999999999999,0,m,0.38597060000756755,None,,,,,,,,sub-011,COM3,46.3,2024-02-02_10h53.02.760,2024_RDpaindiscrimination_QUEST,2023.2.3,60.00243610348505,2024-02-02 10h53.18.501306 -0500,
19,0,19,0,348.4402321000234,,,,348.42468260001624,353.42383240000345,353.4238388000522,353.44031720003113,361.42362440004945,361.42362440004945,363.64028080005664,364.4239040000248,364.4239040000248,364.40714090003166,3.56,5.24,356,524,8,3,1.2,0.75,463,3,473,0.9999999999999999,1,n,0.39466369996080175,None,,,,,,,,sub-011,COM3,46.3,2024-02-02_10h53.02.760,2024_RDpaindiscrimination_QUEST,2023.2.3,60.00243610348505,2024-02-02 10h53.18.501306 -0500,
20,0,20,0,364.4239040000248,,,,364.40805610001553,369.4071796000353,369.40718590002507,369.4236861000536,377.40713370003505,377.40713370003505,379.62380480003776,380.4071506000473,380.4071506000473,380.3906553000561,3.59,5.21,359,521,8,3,1.2,0.75,463,0,473,0.9999999999999999,1,n,0.4069640000234358,None,,,,,,,,sub-011,COM3,46.3,2024-02-02_10h53.02.760,2024_RDpaindiscrimination_QUEST,2023.2.3,60.00243610348505,2024-02-02 10h53.18.501306 -0500,
21,0,21,0,380.4071506000473,,,,380.39158580004005,385.3906879000133,385.39069420000305,385.40720040001906,393.39060190005694,393.39060190005694,395.60731830005534,396.3906763000414,396.3906763000414,396.3741755000083,4.69,4.11,469,411,8,3,1.2,0.75,463,1,472,0.8999999999999999,0,m,0.46334529999876395,None,,,,,,,,sub-011,COM3,46.3,2024-02-02_10h53.02.760,2024_RDpaindiscrimination_QUEST,2023.2.3,60.00243610348505,2024-02-02 10h53.18.501306 -0500,
22,0,22,0,396.3906763000414,,,,396.37510550004663,401.37427490000846,401.37428110005567,401.39072010002565,409.3741449000081,409.3741449000081,411.5908403000212,412.37418260000413,412.37418260000413,412.3577031000168,3.38,5.42,338,542,8,3,1.2,0.75,463,2,473,0.9999999999999999,0,m,0.3274731999845244,None,,,,,,,,sub-011,COM3,46.3,2024-02-02_10h53.02.760,2024_RDpaindiscrimination_QUEST,2023.2.3,60.00243610348505,2024-02-02 10h53.18.501306 -0500,
23,0,23,0,412.37418260000413,,,,412.3586071000318,417.3577199000283,417.35772650002036,417.37424080003984,425.35766620002687,425.35766620002687,427.57435810001334,428.357719200023,428.357719200023,428.3412166000344,4.12,4.68,412,468,8,3,1.2,0.75,463,3,473,1,0,m,0.5718512000166811,None,,,,,,,,sub-011,COM3,46.3,2024-02-02_10h53.02.760,2024_RDpaindiscrimination_QUEST,2023.2.3,60.00243610348505,2024-02-02 10h53.18.501306 -0500,
24,0,24,0,428.357719200023,,,,428.3421552000218,433.341248700046,433.34125500003574,433.35775860003196,441.3411832000129,441.3411832000129,443.5578559000278,444.3412148000207,444.3412148000207,444.3247328000143,4.39,4.41,438,441,8,3,1.2,0.75,463,0,473,1,1,n,0.4362562000169419,None,,,,,,,,sub-011,COM3,46.3,2024-02-02_10h53.02.760,2024_RDpaindiscrimination_QUEST,2023.2.3,60.00243610348505,2024-02-02 10h53.18.501306 -0500,
25,0,25,0,444.3412148000207,,,,444.32569880003575,449.32476250000764,449.3247688000556,449.3412813000032,457.32473500003107,457.32473500003107,459.5413840000401,460.32470530003775,460.32470530003775,460.30831290001515,3.66,5.14,366,514,8,3,1.2,0.75,463,1,473,1,1,n,0.401592799986247,None,,,,,,,,sub-011,COM3,46.3,2024-02-02_10h53.02.760,2024_RDpaindiscrimination_QUEST,2023.2.3,60.00243610348505,2024-02-02 10h53.18.501306 -0500,
26,0,26,0,460.32470530003775,,,,460.3092918000184,465.3082851000363,465.3082919000299,465.3248190000304,473.30821050005034,473.30821050005034,475.524910200038,476.30827960005263,476.30827960005263,476.29181830002926,4.32,4.48,432,448,8,3,1.2,0.75,463,2,472,0.9,0,m,0.41349690000060946,None,,,,,,,,sub-011,COM3,46.3,2024-02-02_10h53.02.760,2024_RDpaindiscrimination_QUEST,2023.2.3,60.00243610348505,2024-02-02 10h53.18.501306 -0500,
27,0,27,0,476.30827960005263,,,,476.29273450002074,481.29183200001717,481.2918430000427,481.3083549000439,489.29176370002097,489.29176370002097,491.5084720000159,492.2917771000066,492.2917771000066,492.2753189000068,3.56,5.24,356,524,8,3,1.2,0.75,463,3,473,1.0,0,m,2.6780344000435434,None,,,,,,,,sub-011,COM3,46.3,2024-02-02_10h53.02.760,2024_RDpaindiscrimination_QUEST,2023.2.3,60.00243610348505,2024-02-02 10h53.18.501306 -0500,
28,0,28,0,492.2917771000066,,,,492.27626160002546,497.2754111000104,497.27541690005455,497.29183440003544,505.27529060002416,505.27529060002416,507.49198070005514,508.2753277000156,508.2753277000156,508.2588342000381,3.28,5.52,328,552,8,3,1.2,0.75,463,0,473,1,1,n,0.3822276000282727,None,,,,,,,,sub-011,COM3,46.3,2024-02-02_10h53.02.760,2024_RDpaindiscrimination_QUEST,2023.2.3,60.00243610348505,2024-02-02 10h53.18.501306 -0500,
29,0,29,0,508.2753277000156,,,,508.25980410003103,513.2588755000033,513.2588816000498,513.2753823000239,521.2588131000521,521.2588131000521,523.4754977000412,524.2588443000568,524.2588443000568,524.2423949000076,3.74,5.06,374,505,8,3,1.2,0.75,463,1,473,1,1,n,0.4827897999784909,None,,,,,,,,sub-011,COM3,46.3,2024-02-02_10h53.02.760,2024_RDpaindiscrimination_QUEST,2023.2.3,60.00243610348505,2024-02-02 10h53.18.501306 -0500,
30,0,30,0,524.2588443000568,,,,524.2433050000109,529.242385700054,529.242391900043,529.2588709000265,537.2423113000114,537.2423113000114,539.4590190000017,540.2423238000483,540.2423238000483,540.2258743000566,3.94,4.86,394,486,8,3,1.2,0.75,463,2,472,0.9,0,m,0.35111410001991317,None,,,,,,,,sub-011,COM3,46.3,2024-02-02_10h53.02.760,2024_RDpaindiscrimination_QUEST,2023.2.3,60.00243610348505,2024-02-02 10h53.18.501306 -0500,
31,0,31,0,540.2423238000483,,,,540.2268135000486,545.2259160000249,545.2259232000215,545.2427285000449,553.2258812000509,553.2258812000509,555.4424906000495,556.2258503000485,556.2258503000485,556.2093683000421,3.88,4.92,388,492,8,3,1.2,0.75,463,3,473,1.0,0,m,0.3117761999601498,None,,,,,,,,sub-011,COM3,46.3,2024-02-02_10h53.02.760,2024_RDpaindiscrimination_QUEST,2023.2.3,60.00243610348505,2024-02-02 10h53.18.501306 -0500,
,,,,,,,,,,,,,,,,,,,,,,,,,,,,,,,,,,556.210235800012,556.2258503000485,562.2426845000009,562.2094430000288,0.8,47.099999999999994,failed,,,,,,,,,
