trials.thisRepN,trials.thisTrialN,trials.thisN,trials.thisIndex,loop_test.thisRepN,loop_test.thisTrialN,loop_test.thisN,loop_test.thisIndex,loop_eval_discri.thisRepN,loop_eval_discri.thisTrialN,loop_eval_discri.thisN,loop_eval_discri.thisIndex,loop_eval.thisRepN,loop_eval.thisTrialN,loop_eval.thisN,loop_eval.thisIndex,loop_discri.thisRepN,loop_discri.thisTrialN,loop_discri.thisN,loop_discri.thisIndex,thisRow.t,notes,Set_up.started,Set_up.stopped,electrode_check.started,electrode_check.stopped,instructions_eval.started,instructions_eval.stopped,pause_5_test.started,pause_5_test.stopped,Phase_Test.started,thermode_locali.started,Phase_Test.stopped,loca_thermode,condition,temp_trial_sent,eval_douleur.started,eval_douleur.stopped,ratingScale.response,ratingScale.rt,thermode_locali.stopped,Fin_test.started,text.started,Fin_test.stopped,pause_5_EVA.started,pause_5_EVA.stopped,tâche_EVA.started,thermode_locali_EVA.started,thermode_locali_EVA.stopped,tâche_EVA.stopped,instructions_discrim.started,instructions_discrim.stopped,pause_5_pic.started,pause_5_pic.stopped,tâche_PIC.started,thermode_locali_pic.started,percu_or.started,responser.started,percu_or.stopped,responser.stopped,thermode_locali_pic.stopped,tâche_PIC.stopped,dur_plateau1,dur_plateau2,dur_plateau1_sent,dur_plateau2_sent,start_plateau_2_resp,dur_pic,dur_rise,pic_presence,pic_response,discrimin_resp.keys,discrimin_resp.rt,discrimin_resp.duration,break_entre_bloc.started,break_entre_bloc.stopped,merci.started,merci.stopped,participant,temp_flat,temp_active,temp_pic_set,com_thermode,date,expName,psychopyVersion,frameRate,expStart,
0,0,0,0,0,0,0,0,,,,,,,,,,,,,78.1598833000171,,0.008205600024666637,70.61063850001665,70.61138130002655,74.96067160001257,74.9606912000163,78.14412800001446,78.14473610001733,83.14391360001173,83.14392620002036,83.17671080000582,93.16024820000166,0,active,45.9,93.16026170001714,105.53011780002271,3.500000000000058,12.285,,,,,,,,,,,,,,,,,,,,,,,,,,,,,,,,,,,,,,,sub-005,45.9,43.6,46.7,COM3,2024-01-25_11h16.10.782,2024_RDpaindiscrimination_maintask,2023.2.3,59.9783598070889,2024-01-25 11h16.39.381875 -0500,
0,0,0,0,1,0,1,0,,,,,,,,,,,,,105.56052560001262,,,,,,,,105.53206600001431,110.54401460001827,110.54402500001015,110.56061200000113,120.5442391000106,1,inactive,45.9,120.54425289999926,124.96409080000012,37.50000000000008,4.35,,,,,,,,,,,,,,,,,,,,,,,,,,,,,,,,,,,,,,,sub-005,45.9,43.6,46.7,COM3,2024-01-25_11h16.10.782,2024_RDpaindiscrimination_maintask,2023.2.3,59.9783598070889,2024-01-25 11h16.39.381875 -0500,
0,0,0,0,2,0,2,0,,,,,,,,,,,,,124.99441150002531,,,,,,,,124.96581410002545,129.97779730000184,129.97780810002587,129.99440520000644,139.97803680002107,2,active,45.9,139.97805040000821,145.4799081000092,4.000000000000164,5.432,,,,,,,,,,,,,,,,,,,,,,,,,,,,,,,,,,,,,,,sub-005,45.9,43.6,46.7,COM3,2024-01-25_11h16.10.782,2024_RDpaindiscrimination_maintask,2023.2.3,59.9783598070889,2024-01-25 11h16.39.381875 -0500,
0,0,0,0,3,0,3,0,,,,,,,,,,,,,145.49477879999904,,,,,,,,145.4811091000156,150.47873250002158,150.47874570000567,150.4948780000268,160.4794623000198,3,active,45.9,160.47947640001075,166.64682220001123,13.500000000000208,6.097,160.56180750002386,,,,,,,,,,,,,,,,,,,,,,,,,,,,,,,,,,,,,,sub-005,45.9,43.6,46.7,COM3,2024-01-25_11h16.10.782,2024_RDpaindiscrimination_maintask,2023.2.3,59.9783598070889,2024-01-25 11h16.39.381875 -0500,
0,0,0,0,4,0,4,0,,,,,,,,,,,,,166.66193850000855,,,,,,,,166.64740510002594,171.64593360002618,171.64594490002492,171.6620380000095,181.64650590001838,0,inactive,45.9,181.646519300004,185.29867580000428,33.499999999999986,3.582,181.7289619000221,,,,,,,,,,,,,,,,,,,,,,,,,,,,,,,,,,,,,,sub-005,45.9,43.6,46.7,COM3,2024-01-25_11h16.10.782,2024_RDpaindiscrimination_maintask,2023.2.3,59.9783598070889,2024-01-25 11h16.39.381875 -0500,
0,0,0,0,5,0,5,0,,,,,,,,,,,,,185.32914900002652,,,,,,,,185.30039879999822,190.31253770002513,190.31254850002006,190.32913580001332,200.31277780001983,1,active,45.9,200.31279180001002,205.01611930000945,13.00000000000017,4.634,,,,,,,,,,,,,,,,,,,,,,,,,,,,,,,,,,,,,,,sub-005,45.9,43.6,46.7,COM3,2024-01-25_11h16.10.782,2024_RDpaindiscrimination_maintask,2023.2.3,59.9783598070889,2024-01-25 11h16.39.381875 -0500,
0,0,0,0,6,0,6,0,,,,,,,,,,,,,205.04618230002234,,,,,,,,205.0178563000227,210.02966650002054,210.02967760001775,210.04626140001346,220.0299059000099,2,inactive,45.9,220.02992010000162,224.41747960000066,45.00000000000006,4.318,,,,,,,,,,,,,,,,,,,,,,,,,,,,,,,,,,,,,,,sub-005,45.9,43.6,46.7,COM3,2024-01-25_11h16.10.782,2024_RDpaindiscrimination_maintask,2023.2.3,59.9783598070889,2024-01-25 11h16.39.381875 -0500,
0,0,0,0,7,0,7,0,,,,,,,,,,,,,224.44670150001184,,,,,,,,224.4192238000105,229.4301206000091,229.4301317000063,229.4467202000087,239.43063870002516,3,active,45.9,239.43067810000503,242.51606210001046,10.0,3.0,,,,,,,,,,,,,,,,,,,,,,,,,,,,,,,,,,,,,,,sub-005,45.9,43.6,46.7,COM3,2024-01-25_11h16.10.782,2024_RDpaindiscrimination_maintask,2023.2.3,59.9783598070889,2024-01-25 11h16.39.381875 -0500,
0,0,0,0,8,0,8,0,,,,,,,,,,,,,242.54706860001897,,,,,,,,242.51780420000432,247.53055799999856,247.53056910002488,247.54712150001433,257.5307815000124,0,inactive,45.9,257.53079499999876,261.88391010000487,21.500000000000206,4.283,,,,,,,,,,,,,,,,,,,,,,,,,,,,,,,,,,,,,,,sub-005,45.9,43.6,46.7,COM3,2024-01-25_11h16.10.782,2024_RDpaindiscrimination_maintask,2023.2.3,59.9783598070889,2024-01-25 11h16.39.381875 -0500,
0,0,0,0,9,0,9,0,,,,,,,,,,,,,261.89747050000005,,,,,,,,261.8844952000072,266.88160100000096,266.8816122999997,266.8976099000138,276.882093799999,1,active,45.9,276.88210730001447,282.4182756000082,15.00000000000021,5.466,276.9645113000006,,,,,,,,,,,,,,,,,,,,,,,,,,,,,,,,,,,,,,sub-005,45.9,43.6,46.7,COM3,2024-01-25_11h16.10.782,2024_RDpaindiscrimination_maintask,2023.2.3,59.9783598070889,2024-01-25 11h16.39.381875 -0500,
0,0,0,0,10,0,10,0,,,,,,,,,,,,,282.4479784000141,,,,,,,,282.42002370001865,287.4314830000221,287.43149430002086,287.4480866000231,297.4317102000059,2,inactive,45.9,297.43172430002596,301.16825400001835,42.99999999999993,3.667,,,,,,,,,,,,,,,,,,,,,,,,,,,,,,,,,,,,,,,sub-005,45.9,43.6,46.7,COM3,2024-01-25_11h16.10.782,2024_RDpaindiscrimination_maintask,2023.2.3,59.9783598070889,2024-01-25 11h16.39.381875 -0500,
0,0,0,0,11,0,11,0,,,,,,,,,,,,,301.1984332000138,,,,,,,,301.1700065000041,306.1819024000142,306.1819128000061,306.19850759999827,316.18212660000427,3,inactive,45.9,316.1821412999998,319.86853410000913,42.5000000000001,3.617,,,,,,,,,,,,,,,,,,,,,,,,,,,,,,,,,,,,,,,sub-005,45.9,43.6,46.7,COM3,2024-01-25_11h16.10.782,2024_RDpaindiscrimination_maintask,2023.2.3,59.9783598070889,2024-01-25 11h16.39.381875 -0500,
0,0,0,0,12,0,12,0,,,,,,,,,,,,,319.8989831000217,,,,,,,,319.87029800002347,324.8823647000245,324.8823753000179,324.89905390000786,334.88258290002705,0,active,45.9,334.88259710001876,339.469150000019,19.000000000000213,4.516,,,,,,,,,,,,,,,,,,,,,,,,,,,,,,,,,,,,,,,sub-005,45.9,43.6,46.7,COM3,2024-01-25_11h16.10.782,2024_RDpaindiscrimination_maintask,2023.2.3,59.9783598070889,2024-01-25 11h16.39.381875 -0500,
0,0,0,0,13,0,13,0,,,,,,,,,,,,,339.4826808000216,,,,,,,,339.470105800021,344.466570300021,344.46658170002047,344.48273200000403,354.46705910001765,1,inactive,45.9,354.46707250000327,359.0017353000003,40.50000000000001,4.465,354.54964790001395,,,,,,,,,,,,,,,,,,,,,,,,,,,,,,,,,,,,,,sub-005,45.9,43.6,46.7,COM3,2024-01-25_11h16.10.782,2024_RDpaindiscrimination_maintask,2023.2.3,59.9783598070889,2024-01-25 11h16.39.381875 -0500,
0,0,0,0,14,0,14,0,,,,,,,,,,,,,359.01653640001314,,,,,,,,359.0030144000193,364.0004183000128,364.0004303000169,364.03330000001006,374.01680750001105,2,active,45.9,374.01682170000277,375.88527100000647,10.0,1.799,,,,,,,,,,,,,,,,,,,,,,,,,,,,,,,,,,,,,,,sub-005,45.9,43.6,46.7,COM3,2024-01-25_11h16.10.782,2024_RDpaindiscrimination_maintask,2023.2.3,59.9783598070889,2024-01-25 11h16.39.381875 -0500,
0,0,0,0,15,0,15,0,,,,,,,,,,,,,375.9002638000238,,,,,,,,375.88634370002546,380.8841072000214,380.88411970000016,380.90026110000326,390.88482760000625,3,inactive,45.9,390.88484100002097,395.8215741000022,48.500000000000114,4.867,390.96716670002206,,,,,,,,,,,,,,,,,,,,,,,,,,,,,,,,,,,,,,sub-005,45.9,43.6,46.7,COM3,2024-01-25_11h16.10.782,2024_RDpaindiscrimination_maintask,2023.2.3,59.9783598070889,2024-01-25 11h16.39.381875 -0500,
0,0,0,0,,,,,0,0,0,0,0,0,0,0,,,,,430.318062300008,,,,,,428.58629650002695,430.30243410001276,,,,,,0,inactive,45.9,445.30276350001805,451.4393281000084,47.000000000000014,6.067,,395.8226454000105,395.8340656000073,428.5856244000024,430.3030259000079,435.3019993000198,435.3020125000039,435.3181782000174,445.3850709000253,445.3027509000094,,,,,,,,,,,,,,,,,,,,,,,,,,,,,sub-005,45.9,43.6,46.7,COM3,2024-01-25_11h16.10.782,2024_RDpaindiscrimination_maintask,2023.2.3,59.9783598070889,2024-01-25 11h16.39.381875 -0500,
0,0,0,0,,,,,0,0,0,0,1,0,1,0,,,,,451.4685916000162,,,,,,,,,,,,,1,active,45.9,466.452323000005,470.98851290001767,42.000000000000135,4.466,,,,,451.44090420001885,456.4520965000265,456.45210910000606,456.4687518000137,,466.4523111000017,,,,,,,,,,,,,,,,,,,,,,,,,,,,,sub-005,45.9,43.6,46.7,COM3,2024-01-25_11h16.10.782,2024_RDpaindiscrimination_maintask,2023.2.3,59.9783598070889,2024-01-25 11h16.39.381875 -0500,
0,0,0,0,,,,,0,0,0,0,,,,,0,0,0,0,475.4524704000214,,,,,,,,,,,,,2,active,,,,,,,,,,,,,,,,470.98944770000526,475.4368910000194,475.43754080001963,480.43629450001754,480.43631129999994,480.4525905000046,487.93606860001455,487.93606860001455,490.93616610000026,490.93616610000026,491.4028283000225,491.38667100001476,3.33,4.72,333,472,7.5,1.2,0.75,pic-present,1,n,1.796006699994905,None,,,,,sub-005,45.9,43.6,46.7,COM3,2024-01-25_11h16.10.782,2024_RDpaindiscrimination_maintask,2023.2.3,59.9783598070889,2024-01-25 11h16.39.381875 -0500,
0,0,0,0,,,,,0,0,0,0,,,,,1,0,1,0,491.4028283000225,,,,,,,,,,,,,3,inactive,,,,,,,,,,,,,,,,,,491.38865210002405,496.3867772000085,496.38679030002095,496.4029554000008,503.9031090000062,503.9031090000062,506.9031965000031,506.9031965000031,507.35318950001965,507.33703770002467,3.95,4.1,395,409,7.5,1.2,0.75,pic-absent,0,m,1.4976818000141066,None,,,,,sub-005,45.9,43.6,46.7,COM3,2024-01-25_11h16.10.782,2024_RDpaindiscrimination_maintask,2023.2.3,59.9783598070889,2024-01-25 11h16.39.381875 -0500,
0,0,0,0,,,,,0,0,0,0,,,,,2,0,2,0,507.35318950001965,,,,,,,,,,,,,0,active,,,,,,,,,,,,,,,,,,507.33857410002383,512.3371747000201,512.3371886000095,512.3533154000179,519.8534839000204,519.8534839000204,522.8535697000043,522.8535697000043,523.303562200017,523.2873865000147,4.18,3.87,418,387,7.5,1.2,0.75,pic-absent,0,m,1.2110928999900352,None,,,,,sub-005,45.9,43.6,46.7,COM3,2024-01-25_11h16.10.782,2024_RDpaindiscrimination_maintask,2023.2.3,59.9783598070889,2024-01-25 11h16.39.381875 -0500,
0,0,0,0,,,,,0,0,0,0,,,,,3,0,3,0,523.303562200017,,,,,,,,,,,,,1,active,,,,,,,,,,,,,,,,,,523.2889312000189,528.2875322000182,528.287545500003,528.3036969000241,535.8038549000048,535.8038549000048,538.8039239000063,538.8039239000063,539.2539315000176,539.23775510001,4.23,3.82,423,382,7.5,1.2,0.75,pic-present,1,n,1.068436700006714,None,,,,,sub-005,45.9,43.6,46.7,COM3,2024-01-25_11h16.10.782,2024_RDpaindiscrimination_maintask,2023.2.3,59.9783598070889,2024-01-25 11h16.39.381875 -0500,
0,0,0,0,,,,,1,0,1,0,0,0,0,0,,,,,541.4373187000165,,,,,,539.2393275000213,541.4216883000045,,,,,,2,active,45.9,556.4220233000233,559.1240696000168,38.99999999999993,2.633,,,,,541.422304000007,546.4212435000227,546.421256200003,546.437453600025,556.504318500025,556.4220122000261,,,,,,,,,,,,,,,,,,,,,,,,,,,,,sub-005,45.9,43.6,46.7,COM3,2024-01-25_11h16.10.782,2024_RDpaindiscrimination_maintask,2023.2.3,59.9783598070889,2024-01-25 11h16.39.381875 -0500,
0,0,0,0,,,,,1,0,1,0,1,0,1,0,,,,,559.154517500021,,,,,,,,,,,,,3,inactive,45.9,574.1381660000188,577.5744608000095,46.00000000000012,3.367,,,,,559.1256746000145,564.1379149999993,564.1379269000026,564.1545114000037,,574.1381533000094,,,,,,,,,,,,,,,,,,,,,,,,,,,,,sub-005,45.9,43.6,46.7,COM3,2024-01-25_11h16.10.782,2024_RDpaindiscrimination_maintask,2023.2.3,59.9783598070889,2024-01-25 11h16.39.381875 -0500,
0,0,0,0,,,,,1,0,1,0,,,,,0,0,0,0,580.4882454000181,,,,,,,,,,,,,0,inactive,,,,,,,,,,,,,,,,577.5753974000108,580.4725637000229,580.4732092000195,585.4721697000205,585.4721830000053,585.4885734000127,592.9718489000225,592.9718489000225,595.9719389000093,595.9719389000093,596.4386119000264,596.4224361000233,3.42,4.63,342,463,7.5,1.2,0.75,pic-present,1,n,2.08428469998762,None,,,,,sub-005,45.9,43.6,46.7,COM3,2024-01-25_11h16.10.782,2024_RDpaindiscrimination_maintask,2023.2.3,59.9783598070889,2024-01-25 11h16.39.381875 -0500,
0,0,0,0,,,,,1,0,1,0,,,,,1,0,1,0,596.4386119000264,,,,,,,,,,,,,1,active,,,,,,,,,,,,,,,,,,596.4241328000207,601.4225690000167,601.4225826000038,601.438730599999,608.9388892000134,608.9388892000134,611.9389725000074,611.9389725000074,612.3889853000001,612.3728003000142,3.4,4.65,340,465,7.5,1.2,0.75,pic-absent,0,m,2.017536500003189,None,,,,,sub-005,45.9,43.6,46.7,COM3,2024-01-25_11h16.10.782,2024_RDpaindiscrimination_maintask,2023.2.3,59.9783598070889,2024-01-25 11h16.39.381875 -0500,
0,0,0,0,,,,,1,0,1,0,,,,,2,0,2,0,612.3889853000001,,,,,,,,,,,,,2,inactive,,,,,,,,,,,,,,,,,,612.3743593000108,617.3729656000214,617.3729785000032,617.3891143000219,624.8892636000237,624.8892636000237,627.8893289000262,627.8893289000262,628.3393548000022,628.323229200003,3.69,4.36,369,436,7.5,1.2,0.75,pic-absent,0,m,1.4952880000055302,None,,,,,sub-005,45.9,43.6,46.7,COM3,2024-01-25_11h16.10.782,2024_RDpaindiscrimination_maintask,2023.2.3,59.9783598070889,2024-01-25 11h16.39.381875 -0500,
0,0,0,0,,,,,1,0,1,0,,,,,3,0,3,0,628.3393548000022,,,,,,,,,,,,,3,inactive,,,,,,,,,,,,,,,,,,628.324783500022,633.3232970000245,633.3233107000124,633.3394775000052,640.8396321000182,640.8396321000182,643.8397234000149,643.8397234000149,644.2897269000241,644.2735344000102,3.45,4.6,345,459,7.5,1.2,0.75,pic-present,1,n,1.1122189000016078,None,,,,,sub-005,45.9,43.6,46.7,COM3,2024-01-25_11h16.10.782,2024_RDpaindiscrimination_maintask,2023.2.3,59.9783598070889,2024-01-25 11h16.39.381875 -0500,
0,0,0,0,,,,,2,0,2,0,0,0,0,0,,,,,647.3564544000255,,,,,,644.2751081000024,647.3409538000124,,,,,,0,active,45.9,662.3410699000233,664.8589550000033,40.99999999999993,2.448,,,,,647.3415813000174,652.3404575000168,652.340471500007,652.3566417000256,662.4234925000055,662.3410587000253,,,,,,,,,,,,,,,,,,,,,,,,,,,,,sub-005,45.9,43.6,46.7,COM3,2024-01-25_11h16.10.782,2024_RDpaindiscrimination_maintask,2023.2.3,59.9783598070889,2024-01-25 11h16.39.381875 -0500,
0,0,0,0,,,,,2,0,2,0,1,0,1,0,,,,,664.8735484000063,,,,,,,,,,,,,1,inactive,45.9,679.8581443000003,682.8934329000185,52.49999999999999,2.966,,,,,664.8594955000153,669.8574816000182,669.8574943999993,669.8736643000157,679.9405669000116,679.8581330000015,,,,,,,,,,,,,,,,,,,,,,,,,,,,,sub-005,45.9,43.6,46.7,COM3,2024-01-25_11h16.10.782,2024_RDpaindiscrimination_maintask,2023.2.3,59.9783598070889,2024-01-25 11h16.39.381875 -0500,
0,0,0,0,,,,,2,0,2,0,,,,,0,0,0,0,685.2739987000241,,,,,,,,,,,,,2,active,,,,,,,,,,,,,,,,682.8943928000226,685.2585622000042,685.2592149999982,690.2579451000202,690.257958800008,690.2741425000131,697.75762270001,697.75762270001,700.7577121000213,700.7577121000213,701.2243739000114,701.2081725000171,3.76,4.29,376,429,7.5,1.2,0.75,pic-absent,0,m,1.1143878000148106,None,,,,,sub-005,45.9,43.6,46.7,COM3,2024-01-25_11h16.10.782,2024_RDpaindiscrimination_maintask,2023.2.3,59.9783598070889,2024-01-25 11h16.39.381875 -0500,
0,0,0,0,,,,,2,0,2,0,,,,,1,0,1,0,701.2243739000114,,,,,,,,,,,,,3,inactive,,,,,,,,,,,,,,,,,,701.2098867000022,706.2083381999983,706.2083517000137,706.2244927000138,713.7246624000254,713.7246624000254,716.7247494000185,716.7247494000185,717.1747475000157,717.1585965999984,3.28,4.77,328,476,7.5,1.2,0.75,pic-present,1,n,1.4715786000015214,None,,,,,sub-005,45.9,43.6,46.7,COM3,2024-01-25_11h16.10.782,2024_RDpaindiscrimination_maintask,2023.2.3,59.9783598070889,2024-01-25 11h16.39.381875 -0500,
0,0,0,0,,,,,2,0,2,0,,,,,2,0,2,0,717.1747475000157,,,,,,,,,,,,,0,active,,,,,,,,,,,,,,,,,,717.1601487000007,722.1586902000126,722.1587039000005,722.1748807000113,729.6750546000258,729.6750546000258,732.6751274999988,732.6751274999988,733.1251186000009,733.1089678000135,3.79,4.26,379,426,7.5,1.2,0.75,pic-present,1,n,0.9931271999957971,None,,,,,sub-005,45.9,43.6,46.7,COM3,2024-01-25_11h16.10.782,2024_RDpaindiscrimination_maintask,2023.2.3,59.9783598070889,2024-01-25 11h16.39.381875 -0500,
0,0,0,0,,,,,2,0,2,0,,,,,3,0,3,0,733.1251186000009,,,,,,,,,,,,,1,active,,,,,,,,,,,,,,,,,,733.1105088000186,738.1089463000244,738.1089595000085,738.1252542000148,745.6254243000003,745.6254243000003,748.6254965000262,748.6254965000262,749.0754697000084,749.0593310000258,4.25,3.8,425,380,7.5,1.2,0.75,pic-absent,0,m,0.8979169000231195,None,,,,,sub-005,45.9,43.6,46.7,COM3,2024-01-25_11h16.10.782,2024_RDpaindiscrimination_maintask,2023.2.3,59.9783598070889,2024-01-25 11h16.39.381875 -0500,
0,0,0,0,,,,,3,0,3,0,0,0,0,0,,,,,752.0089076000149,,,,,,749.0609262000071,751.993133800017,,,,,,2,inactive,45.9,766.9935041000135,769.0789808000263,34.499999999999986,2.016,,,,,751.9937519000086,756.9928894000186,756.9929020999989,757.0090326000063,767.0759311000002,766.9934928000148,,,,,,,,,,,,,,,,,,,,,,,,,,,,,sub-005,45.9,43.6,46.7,COM3,2024-01-25_11h16.10.782,2024_RDpaindiscrimination_maintask,2023.2.3,59.9783598070889,2024-01-25 11h16.39.381875 -0500,
0,0,0,0,,,,,3,0,3,0,1,0,1,0,,,,,769.109329400002,,,,,,,,,,,,,3,active,45.9,784.0930597000115,787.0945014000172,36.00000000000005,2.931,,,,,769.080539800023,774.0928276000195,774.0928391000198,774.1093889000185,,784.093047900009,,,,,,,,,,,,,,,,,,,,,,,,,,,,,sub-005,45.9,43.6,46.7,COM3,2024-01-25_11h16.10.782,2024_RDpaindiscrimination_maintask,2023.2.3,59.9783598070889,2024-01-25 11h16.39.381875 -0500,
0,0,0,0,,,,,3,0,3,0,,,,,0,0,0,0,789.8264989000163,,,,,,,,,,,,,0,inactive,,,,,,,,,,,,,,,,787.0948704000039,789.8103541000164,789.8110920000181,794.8105671000085,794.8105802000209,794.8266770000046,802.3100644000224,802.3100644000224,805.3101394000114,805.3101394000114,805.7768335000146,805.7606519000256,3.46,4.59,346,459,7.5,1.2,0.75,pic-absent,0,m,1.2259421999915503,None,,,,,sub-005,45.9,43.6,46.7,COM3,2024-01-25_11h16.10.782,2024_RDpaindiscrimination_maintask,2023.2.3,59.9783598070889,2024-01-25 11h16.39.381875 -0500,
0,0,0,0,,,,,3,0,3,0,,,,,1,0,1,0,805.7768335000146,,,,,,,,,,,,,1,active,,,,,,,,,,,,,,,,,,805.7623416999995,810.7606790999998,810.7606947000022,810.7769597000151,818.2771244000178,818.2771244000178,821.2771598000254,821.2771598000254,821.7271860000037,821.7110563000024,3.9,4.15,390,415,7.5,1.2,0.75,pic-present,1,n,1.062824599997839,None,,,,,sub-005,45.9,43.6,46.7,COM3,2024-01-25_11h16.10.782,2024_RDpaindiscrimination_maintask,2023.2.3,59.9783598070889,2024-01-25 11h16.39.381875 -0500,
0,0,0,0,,,,,3,0,3,0,,,,,2,0,2,0,821.7271860000037,,,,,,,,,,,,,2,inactive,,,,,,,,,,,,,,,,,,821.7125919000246,826.711249200016,826.7112624000001,826.727437900001,834.2274985000258,834.2274985000258,837.2275492000044,837.2275492000044,837.6775753000111,837.6613819000195,3.78,4.27,378,426,7.5,1.2,0.75,pic-present,1,n,1.0602940999960992,None,,,,,sub-005,45.9,43.6,46.7,COM3,2024-01-25_11h16.10.782,2024_RDpaindiscrimination_maintask,2023.2.3,59.9783598070889,2024-01-25 11h16.39.381875 -0500,
0,0,0,0,,,,,3,0,3,0,,,,,3,0,3,0,837.6775753000111,,,,,,,,,,,,,3,inactive,,,,,,,,,,,,,,,,,,837.6629145000188,842.6615167999989,842.6615304000152,842.6776768999989,850.1779473000206,850.1779473000206,853.1779245000216,853.1779245000216,853.6446241000085,853.6117984000011,3.28,4.77,328,476,7.5,1.2,0.75,pic-absent,0,m,0.9138913000060711,None,,,,,sub-005,45.9,43.6,46.7,COM3,2024-01-25_11h16.10.782,2024_RDpaindiscrimination_maintask,2023.2.3,59.9783598070889,2024-01-25 11h16.39.381875 -0500,
1,0,1,0,0,0,0,0,,,,,,,,,,,,,922.8295719000162,,,,916.3139728000097,919.5471002000268,919.5471152000246,922.8138204000134,922.8144386000058,927.8135421000188,927.8135546000267,927.8298068000004,937.8141443000059,0,inactive,45.9,937.8141578000213,940.5150966000219,40.500000000000036,2.621,937.9132615000126,,,,,,,,,,,,,,,,,,,,,,,,,,,,,,,,,,853.6132095000066,916.3137051000085,,,sub-005,45.9,43.6,46.7,COM3,2024-01-25_11h16.10.782,2024_RDpaindiscrimination_maintask,2023.2.3,59.9783598070889,2024-01-25 11h16.39.381875 -0500,
1,0,1,0,1,0,1,0,,,,,,,,,,,,,940.5301050000126,,,,,,,,940.5164331000124,945.5139261000149,945.5139376000152,945.530101100012,955.51465930001,1,active,45.9,955.5146749000123,959.4986518000078,21.000000000000078,3.915,955.5969709000201,,,,,,,,,,,,,,,,,,,,,,,,,,,,,,,,,,,,,,sub-005,45.9,43.6,46.7,COM3,2024-01-25_11h16.10.782,2024_RDpaindiscrimination_maintask,2023.2.3,59.9783598070889,2024-01-25 11h16.39.381875 -0500,
1,0,1,0,2,0,2,0,,,,,,,,,,,,,959.5137657000159,,,,,,,,959.4993973000092,964.497700900014,964.4977127000166,964.5138800000132,974.4984261000063,2,inactive,45.9,974.4984398000233,978.2179016000009,49.4999999999999,3.65,974.5807845000236,,,,,,,,,,,,,,,,,,,,,,,,,,,,,,,,,,,,,,sub-005,45.9,43.6,46.7,COM3,2024-01-25_11h16.10.782,2024_RDpaindiscrimination_maintask,2023.2.3,59.9783598070889,2024-01-25 11h16.39.381875 -0500,
1,0,1,0,3,0,3,0,,,,,,,,,,,,,978.2475864000153,,,,,,,,978.2196121000161,983.2310489000229,983.2310606000246,983.2476388000068,993.2312771000143,3,inactive,45.9,993.2312912000052,995.7342220999999,49.49999999999989,2.433,,,,,,,,,,,,,,,,,,,,,,,,,,,,,,,,,,,,,,,sub-005,45.9,43.6,46.7,COM3,2024-01-25_11h16.10.782,2024_RDpaindiscrimination_maintask,2023.2.3,59.9783598070889,2024-01-25 11h16.39.381875 -0500,
1,0,1,0,4,0,4,0,,,,,,,,,,,,,995.7646496000234,,,,,,,,995.7359195000026,1000.7481260000204,1000.7481367000146,1000.7647017000127,1010.7483346000081,0,active,45.9,1010.7483481000236,1014.3336208000255,8.000000000000096,3.516,,,,,,,,,,,,,,,,,,,,,,,,,,,,,,,,,,,,,,,sub-005,45.9,43.6,46.7,COM3,2024-01-25_11h16.10.782,2024_RDpaindiscrimination_maintask,2023.2.3,59.9783598070889,2024-01-25 11h16.39.381875 -0500,
1,0,1,0,5,0,5,0,,,,,,,,,,,,,1014.3483800000104,,,,,,,,1014.334234000009,1019.3323338000046,1019.3323453000048,1019.3485026000126,1029.333052300004,1,inactive,45.9,1029.333066400024,1032.5673290000123,46.499999999999915,3.165,1029.415401300008,,,,,,,,,,,,,,,,,,,,,,,,,,,,,,,,,,,,,,sub-005,45.9,43.6,46.7,COM3,2024-01-25_11h16.10.782,2024_RDpaindiscrimination_maintask,2023.2.3,59.9783598070889,2024-01-25 11h16.39.381875 -0500,
1,0,1,0,6,0,6,0,,,,,,,,,,,,,1032.582120600011,,,,,,,,1032.5679074000218,1037.5660986000148,1037.5661108000204,1037.5822427000094,1047.5667231000261,2,active,45.9,1047.5667366000125,1051.5021634000004,24.0000000000002,3.865,1047.6491599,,,,,,,,,,,,,,,,,,,,,,,,,,,,,,,,,,,,,,sub-005,45.9,43.6,46.7,COM3,2024-01-25_11h16.10.782,2024_RDpaindiscrimination_maintask,2023.2.3,59.9783598070889,2024-01-25 11h16.39.381875 -0500,
1,0,1,0,7,0,7,0,,,,,,,,,,,,,1051.5326222000003,,,,,,,,1051.5038856000174,1056.5160837000003,1056.5160952000006,1056.5326815000153,1066.5163232000195,3,active,45.9,1066.5163372000097,1068.3347813000146,40.000000000000036,1.748,,,,,,,,,,,,,,,,,,,,,,,,,,,,,,,,,,,,,,,sub-005,45.9,43.6,46.7,COM3,2024-01-25_11h16.10.782,2024_RDpaindiscrimination_maintask,2023.2.3,59.9783598070889,2024-01-25 11h16.39.381875 -0500,
1,0,1,0,8,0,8,0,,,,,,,,,,,,,1068.3496488000092,,,,,,,,1068.335359300021,1073.3335796000028,1073.3335915000062,1073.349759100005,1083.3342594999995,0,inactive,45.9,1083.3342733000172,1085.9703625000257,50.49999999999989,2.567,1083.416625200014,,,,,,,,,,,,,,,,,,,,,,,,,,,,,,,,,,,,,,sub-005,45.9,43.6,46.7,COM3,2024-01-25_11h16.10.782,2024_RDpaindiscrimination_maintask,2023.2.3,59.9783598070889,2024-01-25 11h16.39.381875 -0500,
1,0,1,0,9,0,9,0,,,,,,,,,,,,,1085.9834067000193,,,,,,,,1085.9711032000196,1090.9673398000014,1090.9673512000008,1090.9834899000125,1100.9680424000253,1,inactive,45.9,1100.9680565000162,1103.5023996000236,46.99999999999997,2.464,1101.0504048000148,,,,,,,,,,,,,,,,,,,,,,,,,,,,,,,,,,,,,,sub-005,45.9,43.6,46.7,COM3,2024-01-25_11h16.10.782,2024_RDpaindiscrimination_maintask,2023.2.3,59.9783598070889,2024-01-25 11h16.39.381875 -0500,
1,0,1,0,10,0,10,0,,,,,,,,,,,,,1103.517171900021,,,,,,,,1103.5035648000194,1108.501070600003,1108.5010821000033,1108.5172503000067,1118.5018048000056,2,active,45.9,1118.5018190000264,1121.5366255000117,14.000000000000066,2.965,1118.5841486999998,,,,,,,,,,,,,,,,,,,,,,,,,,,,,,,,,,,,,,sub-005,45.9,43.6,46.7,COM3,2024-01-25_11h16.10.782,2024_RDpaindiscrimination_maintask,2023.2.3,59.9783598070889,2024-01-25 11h16.39.381875 -0500,
1,0,1,0,11,0,11,0,,,,,,,,,,,,,1121.5508833000204,,,,,,,,1121.5372089000011,1126.534831900004,1126.534844400012,1126.5510042000096,1136.535473200027,3,inactive,45.9,1136.5354867000133,1139.8866977000143,45.499999999999986,3.28,1136.6179073000094,,,,,,,,,,,,,,,,,,,,,,,,,,,,,,,,,,,,,,sub-005,45.9,43.6,46.7,COM3,2024-01-25_11h16.10.782,2024_RDpaindiscrimination_maintask,2023.2.3,59.9783598070889,2024-01-25 11h16.39.381875 -0500,
1,0,1,0,12,0,12,0,,,,,,,,,,,,,1139.9013118000003,,,,,,,,1139.8877313999983,1144.885265400022,1144.8852772000246,1144.9015116000082,1154.8859994000231,0,active,45.9,1154.8860134000133,1157.6891693000216,10.000000000000062,2.734,1154.968325599999,,,,,,,,,,,,,,,,,,,,,,,,,,,,,,,,,,,,,,sub-005,45.9,43.6,46.7,COM3,2024-01-25_11h16.10.782,2024_RDpaindiscrimination_maintask,2023.2.3,59.9783598070889,2024-01-25 11h16.39.381875 -0500,
1,0,1,0,13,0,13,0,,,,,,,,,,,,,1157.7185193000187,,,,,,,,1157.6912229000009,1162.7018951000064,1162.7019058000005,1162.718516300025,1172.7021378000209,1,active,45.9,1172.7021517000103,1177.871004900022,16.500000000000078,5.099,,,,,,,,,,,,,,,,,,,,,,,,,,,,,,,,,,,,,,,sub-005,45.9,43.6,46.7,COM3,2024-01-25_11h16.10.782,2024_RDpaindiscrimination_maintask,2023.2.3,59.9783598070889,2024-01-25 11h16.39.381875 -0500,
1,0,1,0,14,0,14,0,,,,,,,,,,,,,1177.8855204000138,,,,,,,,1177.8721247000212,1182.8694880000257,1182.8694996000268,1182.8856483000272,1192.870222700003,2,inactive,45.9,1192.8702366000216,1196.287270700006,56.49999999999987,3.347,1192.9525575000152,,,,,,,,,,,,,,,,,,,,,,,,,,,,,,,,,,,,,,sub-005,45.9,43.6,46.7,COM3,2024-01-25_11h16.10.782,2024_RDpaindiscrimination_maintask,2023.2.3,59.9783598070889,2024-01-25 11h16.39.381875 -0500,
1,0,1,0,15,0,15,0,,,,,,,,,,,,,1196.3026339000207,,,,,,,,1196.2884467000258,1201.286603400018,1201.2866153000214,1201.3027460000012,1211.2873359000077,3,active,45.9,1211.2873499999987,1213.4555108000059,10.499999999999991,2.099,1211.3696319000155,,,,,,,,,,,,,,,,,,,,,,,,,,,,,,,,,,,,,,sub-005,45.9,43.6,46.7,COM3,2024-01-25_11h16.10.782,2024_RDpaindiscrimination_maintask,2023.2.3,59.9783598070889,2024-01-25 11h16.39.381875 -0500,
1,0,1,0,,,,,0,0,0,0,0,0,0,0,,,,,1221.6865537000122,,,,,,1220.0716474000074,1221.6708196000254,,,,,,0,active,45.9,1236.67116540001,1241.239318100008,30.000000000000043,4.498,,1213.456270900002,1213.4696828000015,1220.0709802000201,1221.6714338000165,1226.6704834000266,1226.6704963000084,1226.6866685000132,1236.7535714000114,1236.6711528000014,,,,,,,,,,,,,,,,,,,,,,,,,,,,,sub-005,45.9,43.6,46.7,COM3,2024-01-25_11h16.10.782,2024_RDpaindiscrimination_maintask,2023.2.3,59.9783598070889,2024-01-25 11h16.39.381875 -0500,
1,0,1,0,,,,,0,0,0,0,1,0,1,0,,,,,1241.2704962000134,,,,,,,,,,,,,1,inactive,45.9,1256.2540931000258,1259.6739798000199,36.500000000000156,3.35,,,,,1241.2409471000137,1246.253837700002,1246.2538495000044,1246.2704582000151,,1256.2540815000248,,,,,,,,,,,,,,,,,,,,,,,,,,,,,sub-005,45.9,43.6,46.7,COM3,2024-01-25_11h16.10.782,2024_RDpaindiscrimination_maintask,2023.2.3,59.9783598070889,2024-01-25 11h16.39.381875 -0500,
1,0,1,0,,,,,0,0,0,0,,,,,0,0,0,0,1262.7041552000155,,,,,,,,,,,,,2,active,,,,,,,,,,,,,,,,1259.6749437000253,1262.6884393000219,1262.6890855000238,1267.6881283000112,1267.6881417000259,1267.7042904000264,1275.187774400023,1275.187774400023,1278.1878611000138,1278.1878611000138,1278.6545235000085,1278.6383477000054,3.26,4.79,326,479,7.5,1.2,0.75,pic-present,1,n,0.9791010999761056,None,,,,,sub-005,45.9,43.6,46.7,COM3,2024-01-25_11h16.10.782,2024_RDpaindiscrimination_maintask,2023.2.3,59.9783598070889,2024-01-25 11h16.39.381875 -0500,
1,0,1,0,,,,,0,0,0,0,,,,,1,0,1,0,1278.6545235000085,,,,,,,,,,,,,3,inactive,,,,,,,,,,,,,,,,,,1278.6400521000032,1283.6382690000173,1283.6382826000045,1283.6546560999996,1291.1547908000066,1291.1547908000066,1294.1549099000113,1294.1549099000113,1294.6049098000221,1294.5887219000142,3.51,4.54,351,454,7.5,1.2,0.75,pic-absent,0,m,1.572110100009013,None,,,,,sub-005,45.9,43.6,46.7,COM3,2024-01-25_11h16.10.782,2024_RDpaindiscrimination_maintask,2023.2.3,59.9783598070889,2024-01-25 11h16.39.381875 -0500,
1,0,1,0,,,,,0,0,0,0,,,,,2,0,2,0,1294.6049098000221,,,,,,,,,,,,,0,active,,,,,,,,,,,,,,,,,,1294.5902755999996,1299.588873300003,1299.5888866000168,1299.6050121000153,1307.1051857999992,1307.1051857999992,1310.105252600013,1310.105252600013,1310.5552783000167,1310.5390906000102,3.74,4.31,374,430,7.5,1.2,0.75,pic-absent,0,m,1.3770633000240196,None,,,,,sub-005,45.9,43.6,46.7,COM3,2024-01-25_11h16.10.782,2024_RDpaindiscrimination_maintask,2023.2.3,59.9783598070889,2024-01-25 11h16.39.381875 -0500,
1,0,1,0,,,,,0,0,0,0,,,,,3,0,3,0,1310.5552783000167,,,,,,,,,,,,,1,inactive,,,,,,,,,,,,,,,,,,1310.5406520000251,1315.5392530000245,1315.53926770002,1315.5553817000182,1323.0555529000121,1323.0555529000121,1326.055640800012,1326.055640800012,1326.5056316000118,1326.489459400007,3.76,4.29,376,429,7.5,1.2,0.75,pic-present,0,m,1.1347034999926109,None,,,,,sub-005,45.9,43.6,46.7,COM3,2024-01-25_11h16.10.782,2024_RDpaindiscrimination_maintask,2023.2.3,59.9783598070889,2024-01-25 11h16.39.381875 -0500,
1,0,1,0,,,,,1,0,1,0,0,0,0,0,,,,,1329.489044100017,,,,,,1326.4910401000234,1329.4729366000101,,,,,,2,inactive,45.9,1344.47387050002,1347.3586188000045,41.50000000000003,2.815,,,,,1329.4736344999983,1334.473046500003,1334.4730601000192,1334.4891532000038,1344.5560751000012,1344.4738594000228,,,,,,,,,,,,,,,,,,,,,,,,,,,,,sub-005,45.9,43.6,46.7,COM3,2024-01-25_11h16.10.782,2024_RDpaindiscrimination_maintask,2023.2.3,59.9783598070889,2024-01-25 11h16.39.381875 -0500,
1,0,1,0,,,,,1,0,1,0,1,0,1,0,,,,,1347.3728991000098,,,,,,,,,,,,,3,active,45.9,1362.357467200025,1365.9087540000037,39.00000000000014,3.482,,,,,1347.3596426000004,1352.356731100008,1352.356743500015,1352.3730013000022,1362.4398172000074,1362.3574557000247,,,,,,,,,,,,,,,,,,,,,,,,,,,,,sub-005,45.9,43.6,46.7,COM3,2024-01-25_11h16.10.782,2024_RDpaindiscrimination_maintask,2023.2.3,59.9783598070889,2024-01-25 11h16.39.381875 -0500,
1,0,1,0,,,,,1,0,1,0,,,,,0,0,0,0,1369.223305600026,,,,,,,,,,,,,0,active,,,,,,,,,,,,,,,,1365.9093804000004,1369.2075661000272,1369.208219400025,1374.2072493000014,1374.207262800017,1374.223428600002,1381.706894300005,1381.706894300005,1384.7070007000002,1384.7070007000002,1385.173662300018,1385.1575220000232,3.74,4.31,374,430,7.5,1.2,0.75,pic-absent,0,m,1.2115332999965176,None,,,,,sub-005,45.9,43.6,46.7,COM3,2024-01-25_11h16.10.782,2024_RDpaindiscrimination_maintask,2023.2.3,59.9783598070889,2024-01-25 11h16.39.381875 -0500,
1,0,1,0,,,,,1,0,1,0,,,,,1,0,1,0,1385.173662300018,,,,,,,,,,,,,1,inactive,,,,,,,,,,,,,,,,,,1385.1592482000124,1390.157621500024,1390.1576351000112,1390.1737934999983,1397.6739501999982,1397.6739501999982,1400.674040300015,1400.674040300015,1401.1240287000255,1401.1078205000085,3.35,4.7,335,470,7.5,1.2,0.75,pic-present,1,n,1.0038348999805748,None,,,,,sub-005,45.9,43.6,46.7,COM3,2024-01-25_11h16.10.782,2024_RDpaindiscrimination_maintask,2023.2.3,59.9783598070889,2024-01-25 11h16.39.381875 -0500,
1,0,1,0,,,,,1,0,1,0,,,,,2,0,2,0,1401.1240287000255,,,,,,,,,,,,,2,active,,,,,,,,,,,,,,,,,,1401.1093783000251,1406.1079762000008,1406.1079896000156,1406.1241648000141,1413.6243455000222,1413.6243455000222,1416.624389500008,1416.624389500008,1417.074417900003,1417.0582239000069,3.53,4.52,353,451,7.5,1.2,0.75,pic-present,1,n,1.0456016999960411,None,,,,,sub-005,45.9,43.6,46.7,COM3,2024-01-25_11h16.10.782,2024_RDpaindiscrimination_maintask,2023.2.3,59.9783598070889,2024-01-25 11h16.39.381875 -0500,
1,0,1,0,,,,,1,0,1,0,,,,,3,0,3,0,1417.074417900003,,,,,,,,,,,,,3,inactive,,,,,,,,,,,,,,,,,,1417.0597468000196,1422.0584851000167,1422.0584983000008,1422.074538100016,1429.5746713000117,1429.5746713000117,1432.5747737000056,1432.5747737000056,1433.0247903000272,1433.008617400017,3.77,4.28,377,428,7.5,1.2,0.75,pic-absent,0,m,1.279122300009476,None,,,,,sub-005,45.9,43.6,46.7,COM3,2024-01-25_11h16.10.782,2024_RDpaindiscrimination_maintask,2023.2.3,59.9783598070889,2024-01-25 11h16.39.381875 -0500,
1,0,1,0,,,,,2,0,2,0,0,0,0,0,,,,,1436.0081900000223,,,,,,1433.0102009000257,1435.9924165000266,,,,,,0,inactive,45.9,1450.9928477000212,1455.3106088000059,37.00000000000002,4.248,,,,,1435.9930280000262,1440.9921459000034,1440.9921587000135,1441.0083067000087,1451.0752091000031,1450.992836600024,,,,,,,,,,,,,,,,,,,,,,,,,,,,,sub-005,45.9,43.6,46.7,COM3,2024-01-25_11h16.10.782,2024_RDpaindiscrimination_maintask,2023.2.3,59.9783598070889,2024-01-25 11h16.39.381875 -0500,
1,0,1,0,,,,,2,0,2,0,1,0,1,0,,,,,1455.3252894000034,,,,,,,,,,,,,1,active,45.9,1470.3100162000046,1473.0770048000268,48.00000000000008,2.698,,,,,1455.3111391999992,1460.309236000001,1460.3092486000096,1460.325402700022,1470.392326400004,1470.3100046000036,,,,,,,,,,,,,,,,,,,,,,,,,,,,,sub-005,45.9,43.6,46.7,COM3,2024-01-25_11h16.10.782,2024_RDpaindiscrimination_maintask,2023.2.3,59.9783598070889,2024-01-25 11h16.39.381875 -0500,
1,0,1,0,,,,,2,0,2,0,,,,,0,0,0,0,1476.2091115000076,,,,,,,,,,,,,2,inactive,,,,,,,,,,,,,,,,1473.077336300019,1476.1935397000052,1476.1941834000172,1481.193081000005,1481.1930954000272,1481.2092312000168,1488.6927082000184,1488.6927082000184,1491.6927961000183,1491.6927961000183,1492.1594790000236,1492.1433170000091,4.09,3.96,409,396,7.5,1.2,0.75,pic-present,1,n,0.9692291999817826,None,,,,,sub-005,45.9,43.6,46.7,COM3,2024-01-25_11h16.10.782,2024_RDpaindiscrimination_maintask,2023.2.3,59.9783598070889,2024-01-25 11h16.39.381875 -0500,
1,0,1,0,,,,,2,0,2,0,,,,,1,0,1,0,1492.1594790000236,,,,,,,,,,,,,3,active,,,,,,,,,,,,,,,,,,1492.1450291000074,1497.1434199000068,1497.1434330000193,1497.1596148000099,1504.6597678000107,1504.6597678000107,1507.659854700003,1507.659854700003,1508.109850000008,1508.0936882000242,3.43,4.62,343,462,7.5,1.2,0.75,pic-absent,0,m,1.3704789000039455,None,,,,,sub-005,45.9,43.6,46.7,COM3,2024-01-25_11h16.10.782,2024_RDpaindiscrimination_maintask,2023.2.3,59.9783598070889,2024-01-25 11h16.39.381875 -0500,
1,0,1,0,,,,,2,0,2,0,,,,,2,0,2,0,1508.109850000008,,,,,,,,,,,,,0,inactive,,,,,,,,,,,,,,,,,,1508.0952188000083,1513.0937796000217,1513.0937930000073,1513.1099834000051,1520.6101487000124,1520.6101487000124,1523.610258700006,1523.610258700006,1524.0602348000102,1524.0440712000127,3.25,4.8,325,480,7.5,1.2,0.75,pic-present,1,n,1.1798555999994278,None,,,,,sub-005,45.9,43.6,46.7,COM3,2024-01-25_11h16.10.782,2024_RDpaindiscrimination_maintask,2023.2.3,59.9783598070889,2024-01-25 11h16.39.381875 -0500,
1,0,1,0,,,,,2,0,2,0,,,,,3,0,3,0,1524.0602348000102,,,,,,,,,,,,,1,active,,,,,,,,,,,,,,,,,,1524.045623300015,1529.0442068999982,1529.0442206000153,1529.0603407000017,1536.56051510002,1536.56051510002,1539.5606035000237,1539.5606035000237,1540.010597000015,1539.9944400000095,3.59,4.46,359,446,7.5,1.2,0.75,pic-absent,1,n,1.032953699992504,None,,,,,sub-005,45.9,43.6,46.7,COM3,2024-01-25_11h16.10.782,2024_RDpaindiscrimination_maintask,2023.2.3,59.9783598070889,2024-01-25 11h16.39.381875 -0500,
1,0,1,0,,,,,3,0,3,0,0,0,0,0,,,,,1542.6606549000135,,,,,,1539.996012800024,1542.6449890000222,,,,,,2,active,45.9,1557.6453518000199,1561.0143098000262,40.00000000000001,3.3,,,,,1542.645603300014,1547.6444967999996,1547.6445127000043,1547.6607908000005,1557.7276975999994,1557.6453404000204,,,,,,,,,,,,,,,,,,,,,,,,,,,,,sub-005,45.9,43.6,46.7,COM3,2024-01-25_11h16.10.782,2024_RDpaindiscrimination_maintask,2023.2.3,59.9783598070889,2024-01-25 11h16.39.381875 -0500,
1,0,1,0,,,,,3,0,3,0,1,0,1,0,,,,,1561.0444613000145,,,,,,,,,,,,,3,inactive,45.9,1576.0281994000252,1578.5486032000044,45.500000000000085,2.45,,,,,1561.0158614000247,1566.0279348000186,1566.0279467000219,1566.0445127999992,,1576.0281869000173,,,,,,,,,,,,,,,,,,,,,,,,,,,,,sub-005,45.9,43.6,46.7,COM3,2024-01-25_11h16.10.782,2024_RDpaindiscrimination_maintask,2023.2.3,59.9783598070889,2024-01-25 11h16.39.381875 -0500,
1,0,1,0,,,,,3,0,3,0,,,,,0,0,0,0,1581.3949055999983,,,,,,,,,,,,,0,inactive,,,,,,,,,,,,,,,,1578.549554199999,1581.3791588000022,1581.3798049000034,1586.3789035000082,1586.3789171000244,1586.3950095000037,1593.8785352999985,1593.8785352999985,1596.87858650001,1596.87858650001,1597.3452795000048,1597.3292293999984,3.75,4.3,375,430,7.5,1.2,0.75,pic-absent,0,m,1.1627995999879204,None,,,,,sub-005,45.9,43.6,46.7,COM3,2024-01-25_11h16.10.782,2024_RDpaindiscrimination_maintask,2023.2.3,59.9783598070889,2024-01-25 11h16.39.381875 -0500,
1,0,1,0,,,,,3,0,3,0,,,,,1,0,1,0,1597.3452795000048,,,,,,,,,,,,,1,active,,,,,,,,,,,,,,,,,,1597.3309320000117,1602.3292695000127,1602.3292828000267,1602.3454014000017,1609.8455732000002,1609.8455732000002,1612.8456257000216,1612.8456257000216,1613.29565070002,1613.279504200007,4.07,3.98,407,398,7.5,1.2,0.75,pic-present,1,n,1.060286800027825,None,,,,,sub-005,45.9,43.6,46.7,COM3,2024-01-25_11h16.10.782,2024_RDpaindiscrimination_maintask,2023.2.3,59.9783598070889,2024-01-25 11h16.39.381875 -0500,
1,0,1,0,,,,,3,0,3,0,,,,,2,0,2,0,1613.29565070002,,,,,,,,,,,,,2,inactive,,,,,,,,,,,,,,,,,,1613.2810398000001,1618.2796071000048,1618.2796206000203,1618.2957712000061,1625.7959417000238,1625.7959417000238,1628.795999200025,1628.795999200025,1629.2460265000118,1629.2298263000266,3.57,4.48,357,448,7.5,1.2,0.75,pic-absent,0,m,0.9134302999882493,None,,,,,sub-005,45.9,43.6,46.7,COM3,2024-01-25_11h16.10.782,2024_RDpaindiscrimination_maintask,2023.2.3,59.9783598070889,2024-01-25 11h16.39.381875 -0500,
1,0,1,0,,,,,3,0,3,0,,,,,3,0,3,0,1629.2460265000118,,,,,,,,,,,,,3,active,,,,,,,,,,,,,,,,,,1629.2313816000242,1634.2299714000255,1634.2299845000089,1634.2461252000066,1641.7463116,1641.7463116,1644.7463731000025,1644.7463731000025,1645.1963990000077,1645.1802403000183,4.18,3.87,418,387,7.5,1.2,0.75,pic-present,1,n,1.0028840999875683,None,,,,,sub-005,45.9,43.6,46.7,COM3,2024-01-25_11h16.10.782,2024_RDpaindiscrimination_maintask,2023.2.3,59.9783598070889,2024-01-25 11h16.39.381875 -0500,
,,,,,,,,,,,,,,,,,,,,,,,,,,,,,,,,,,,,,,,,,,,,,,,,,,,,,,,,,,,,,,,,,,,,,,,,,,1645.1816564000037,1650.0643247000116,1650.0643588000094,1660.0639197000128,,,,,,,,,,,
