series.thisRepN,series.thisTrialN,series.thisN,series.thisIndex,Ramp.thisRepN,Ramp.thisTrialN,Ramp.thisN,Ramp.thisIndex,trials.thisRepN,trials.thisTrialN,trials.thisN,trials.thisIndex,thisRow.t,notes,Welcome.started,Welcome.stopped,instructions2.started,instructions2.stopped,instructions_start_ramp.started,instructions_start_ramp.stopped,confirm_continue.started,key_resp_8.started,confirm_continue.stopped,intensity,wait1_dur,wait.started,wait.stopped,therm_trig.started,therm_trig.stopped,rating_scale.started,rating_scale.stopped,rating,ratingScale.response,ratingScale.rt,press_when_ready.started,text_2.started,key_resp_3.started,press_when_ready.stopped,key_resp_3.keys,key_resp_3.rt,key_resp_3.duration,bloc_terminé.started,bloc_terminé.stopped,compile_ramps.started,compile_ramps.stopped,deuxieme_start.started,deuxieme_start.stopped,press_when_ready2.started,text_9.started,press_when_ready2.stopped,wait_2.started,wait_2.stopped,therm_trig2.started,therm_trig2.stopped,rating_scale2.started,ratingScale_2.started,rating_scale2.stopped,keyResp_2.keys,therm_value,ratingScale_2.response,ratingScale_2.rt,thank_you_output_code.started,thank_you_output_code.stopped,participant,com_thermode,nramps,date,expName,psychopyVersion,frameRate,expStart,
0,0,0,0,0,0,0,0,,,,,499.86619059999975,,0.003710999999384512,483.0000496999992,483.00006909999956,491.88371499999994,491.8895791999994,499.8337898,499.8345032999996,499.86619059999975,501.16727269999956,41,2.0,501.16768629999933,503.1834700999998,503.18348549999973,513.1844031999999,513.1844173999998,516.8371238999998,0.0,0.0,3.567,516.8374793999992,516.8499261999996,516.8499261999996,525.7511924999999,y,8.899838299999828,None,,,,,,,,,,,,,,,,,,,,,,,sub-007,COM3,3,2024-01-29_09h04.48.910,2024_RDpaindiscrimination_calibration,2023.2.3,59.97537411119165,2024-01-29 09h05.02.456810 -0500,
0,0,0,0,1,0,1,0,,,,,525.7836168999993,,,,,,,,525.7519514999994,525.7836168999993,530.2179335999999,42,2.4,530.2182041999995,532.6175863999997,532.6176011999996,542.6185671999992,542.6185791999997,546.8748867999993,0.0,0.0,4.185,546.8757871999996,546.9007994999993,546.9007994999993,550.0850088999996,y,3.173009699999966,None,,,,,,,,,,,,,,,,,,,,,,,sub-007,COM3,3,2024-01-29_09h04.48.910,2024_RDpaindiscrimination_calibration,2023.2.3,59.97537411119165,2024-01-29 09h05.02.456810 -0500,
0,0,0,0,2,0,2,0,,,,,550.1007572999997,,,,,,,,550.0855972999998,550.1007572999997,551.8184427999995,43,2.1,551.8187101999993,553.9177755999999,553.9177905999995,563.9178277999999,563.9178389999997,569.4891973999993,1.5000000000000002,1.5000000000000002,5.5,569.4894975999996,569.5012416,569.5012416,571.8190747999997,y,2.312862199999472,None,,,,,,,,,,,,,,,,,,,,,,,sub-007,COM3,3,2024-01-29_09h04.48.910,2024_RDpaindiscrimination_calibration,2023.2.3,59.97537411119165,2024-01-29 09h05.02.456810 -0500,
0,0,0,0,3,0,3,0,,,,,571.8346308,,,,,,,,571.8196559999997,571.8346308,573.6023570999996,44,2.0,573.6026222,575.6018884999994,575.6019032999993,585.6030044999998,585.6030170999993,590.5213331999994,4.000000000000093,4.000000000000093,4.846,590.5216295999999,590.5351228,590.5351228,593.2360771999993,y,2.6870305999991615,None,,,,,,,,,,,,,,,,,,,,,,,sub-007,COM3,3,2024-01-29_09h04.48.910,2024_RDpaindiscrimination_calibration,2023.2.3,59.97537411119165,2024-01-29 09h05.02.456810 -0500,
0,0,0,0,4,0,4,0,,,,,593.2519532999995,,,,,,,,593.2366638999993,593.2519532999995,594.4695476999996,45,2.1,594.4698079,596.5691870999999,596.5692026999996,606.5701911999995,606.5702038999998,613.1273840999993,17.000000000000103,17.000000000000103,6.486,613.1282535,613.1523533,613.1523533,615.9035795,y,2.745781800000259,None,,,,,,,,,,,,,,,,,,,,,,,sub-007,COM3,3,2024-01-29_09h04.48.910,2024_RDpaindiscrimination_calibration,2023.2.3,59.97537411119165,2024-01-29 09h05.02.456810 -0500,
0,0,0,0,5,0,5,0,,,,,615.9190892999995,,,,,,,,615.9041715999992,615.9190892999995,617.4868287999998,46,2.0,617.4876059999997,619.4863098999995,619.4863243,629.4874310999994,629.4874433999994,637.0894217999994,27.50000000000015,27.50000000000015,7.451,637.0897183999996,637.1029515999999,637.1029515999999,639.8539246999999,y,2.735023100000035,None,,,,,,,,,,,,,,,,,,,,,,,sub-007,COM3,3,2024-01-29_09h04.48.910,2024_RDpaindiscrimination_calibration,2023.2.3,59.97537411119165,2024-01-29 09h05.02.456810 -0500,
0,0,0,0,6,0,6,0,,,,,639.8697823999992,,,,,,,,639.8545030999994,639.8697823999992,641.0375363999992,47,2.5,641.0378044999998,643.5371497999995,643.5371654999999,653.5380412999993,653.5380540999995,658.8253789999999,40.000000000000036,40.000000000000036,5.216,658.8260979999995,658.8369429999993,658.8369429999993,662.2545625999992,y,3.4048766000005344,None,,,,,,,,,,,,,,,,,,,,,,,sub-007,COM3,3,2024-01-29_09h04.48.910,2024_RDpaindiscrimination_calibration,2023.2.3,59.97537411119165,2024-01-29 09h05.02.456810 -0500,
0,0,0,0,7,0,7,0,,,,,662.2702258999998,,,,,,,,662.2551451999998,662.2702258999998,663.3879852999999,48,2.4,663.3882384999997,665.7875423999994,665.7875572999992,675.7885997999992,675.7886122,680.8765905999999,52.49999999999992,52.49999999999992,5.017,680.8772423,680.8873530999999,680.8873530999999,683.7884310999998,n,2.898891800000456,None,,,,,,,,,,,,,,,,,,,,,,,sub-007,COM3,3,2024-01-29_09h04.48.910,2024_RDpaindiscrimination_calibration,2023.2.3,59.97537411119165,2024-01-29 09h05.02.456810 -0500,
0,0,0,0,,,,,,,,,,,,,,,,,,,,,,,,,,,,,,,,,,,,,,683.7888461999992,687.7882297999995,,,,,,,,,,,,,,,,,,,,,sub-007,COM3,3,2024-01-29_09h04.48.910,2024_RDpaindiscrimination_calibration,2023.2.3,59.97537411119165,2024-01-29 09h05.02.456810 -0500,
1,0,1,0,0,0,0,0,,,,,688.8043039999993,,,,,,687.7884909999993,688.7885392999997,688.7892368999992,688.8043039999993,692.9720410999998,41,2.5,692.9724200999999,695.4716197999996,695.4716343999999,705.4726494999995,705.4726616999997,708.6916170999993,0.0,0.0,3.147,708.6919728999992,708.7047385999995,708.7047385999995,712.4224224,y,3.7096308999998655,None,,,,,,,,,,,,,,,,,,,,,,,sub-007,COM3,3,2024-01-29_09h04.48.910,2024_RDpaindiscrimination_calibration,2023.2.3,59.97537411119165,2024-01-29 09h05.02.456810 -0500,
1,0,1,0,1,0,1,0,,,,,712.4381549999998,,,,,,,,712.4231714999996,712.4381549999998,713.6558111999993,42,2.0,713.6560680999992,715.6554786999995,715.6554931999999,725.6564842999996,725.6564967999993,727.9969259999998,0.0,0.0,2.269,727.9977992999993,728.0218798999995,728.0218798999995,730.7228355999996,y,2.6997192999997424,None,,,,,,,,,,,,,,,,,,,,,,,sub-007,COM3,3,2024-01-29_09h04.48.910,2024_RDpaindiscrimination_calibration,2023.2.3,59.97537411119165,2024-01-29 09h05.02.456810 -0500,
1,0,1,0,2,0,2,0,,,,,730.7552820999999,,,,,,,,730.7234173999996,730.7552820999999,731.8562069999998,43,2.3,731.8564764999992,734.1558175999999,734.1558322999999,744.1569362,744.1569485999999,750.8309809999992,0.0,0.0,6.602,750.8318452999993,750.8557965,750.8557965,753.5569012999995,y,2.6857543000005535,None,,,,,,,,,,,,,,,,,,,,,,,sub-007,COM3,3,2024-01-29_09h04.48.910,2024_RDpaindiscrimination_calibration,2023.2.3,59.97537411119165,2024-01-29 09h05.02.456810 -0500,
1,0,1,0,3,0,3,0,,,,,753.5725149999998,,,,,,,,753.5574910999994,753.5725149999998,754.9567760999998,44,2.3,754.9570367999995,757.2564855999999,757.2564997999998,767.2575324,767.2575445999992,771.0603916999999,0.5000000000000229,0.5000000000000229,3.731,771.0606865999998,771.0729377999996,771.0729377999996,773.7407835999993,y,2.6533308999996734,None,,,,,,,,,,,,,,,,,,,,,,,sub-007,COM3,3,2024-01-29_09h04.48.910,2024_RDpaindiscrimination_calibration,2023.2.3,59.97537411119165,2024-01-29 09h05.02.456810 -0500,
1,0,1,0,4,0,4,0,,,,,773.7563400999998,,,,,,,,773.7413723,773.7563400999998,775.1573063999995,45,2.1,775.1575728999996,777.2569534999993,777.2569685999997,787.2580316999993,787.2580442999997,790.0155714999992,7.999999999999989,7.999999999999989,2.686,790.0164301999994,790.0401114999995,790.0401114999995,792.7911584999993,y,2.737462300000516,None,,,,,,,,,,,,,,,,,,,,,,,sub-007,COM3,3,2024-01-29_09h04.48.910,2024_RDpaindiscrimination_calibration,2023.2.3,59.97537411119165,2024-01-29 09h05.02.456810 -0500,
1,0,1,0,5,0,5,0,,,,,792.8069127999997,,,,,,,,792.7917313999997,792.8069127999997,794.0077519999995,46,2.2,794.0080076999993,796.2074029999994,796.2074174999998,806.2084101999999,806.208423,810.6490185999992,26.499999999999986,26.499999999999986,4.369,810.6499080999993,810.6739435,810.6739435,813.3753864999999,y,2.7002852000005078,None,,,,,,,,,,,,,,,,,,,,,,,sub-007,COM3,3,2024-01-29_09h04.48.910,2024_RDpaindiscrimination_calibration,2023.2.3,59.97537411119165,2024-01-29 09h05.02.456810 -0500,
1,0,1,0,6,0,6,0,,,,,813.3906769999994,,,,,,,,813.3759627,813.3906769999994,814.7245393999992,47,2.2,814.7248018999999,816.9246411999993,816.9246559999992,826.9255843999999,826.9255968999996,831.7446086999998,40.0,40.0,4.747,831.7449060999998,831.7577942999997,831.7577942999997,834.5588312999998,y,2.7922442999997656,None,,,,,,,,,,,,,,,,,,,,,,,sub-007,COM3,3,2024-01-29_09h04.48.910,2024_RDpaindiscrimination_calibration,2023.2.3,59.97537411119165,2024-01-29 09h05.02.456810 -0500,
1,0,1,0,7,0,7,0,,,,,834.5745349999997,,,,,,,,834.5594173999998,834.5745349999997,835.5255724999997,48,2.1,835.5258268999996,837.6250744999998,837.6250903,847.6262121999998,847.6262256,849.8115609999995,52.999999999999986,52.999999999999986,2.114,849.8118646999992,849.8249134999996,849.8249134999996,852.4425585999998,n,2.608501200000319,None,,,,,,,,,,,,,,,,,,,,,,,sub-007,COM3,3,2024-01-29_09h04.48.910,2024_RDpaindiscrimination_calibration,2023.2.3,59.97537411119165,2024-01-29 09h05.02.456810 -0500,
1,0,1,0,,,,,,,,,,,,,,,,,,,,,,,,,,,,,,,,,,,,,,852.4429622999996,856.4423066999998,,,,,,,,,,,,,,,,,,,,,sub-007,COM3,3,2024-01-29_09h04.48.910,2024_RDpaindiscrimination_calibration,2023.2.3,59.97537411119165,2024-01-29 09h05.02.456810 -0500,
2,0,2,0,0,0,0,0,,,,,858.2417900999999,,,,,,856.4425627,858.2261111999997,858.2268347999998,858.2417900999999,860.9094886999992,41,2.3,860.9098574,863.2092464999996,863.2092620999993,873.2100953999998,873.2101075,875.5628536999993,0.0,0.0,2.281,875.5632158999997,875.5755433999993,875.5755433999993,878.1265415999997,y,2.5342061999999714,None,,,,,,,,,,,,,,,,,,,,,,,sub-007,COM3,3,2024-01-29_09h04.48.910,2024_RDpaindiscrimination_calibration,2023.2.3,59.97537411119165,2024-01-29 09h05.02.456810 -0500,
2,0,2,0,1,0,1,0,,,,,878.1422679999996,,,,,,,,878.1272739999995,878.1422679999996,879.9601539999994,42,2.4,879.9604227,882.3596275,882.3596426999993,892.3606384999994,892.3606513999994,896.8845794999997,6.730727086790012e-14,6.730727086790012e-14,4.453,896.8854595999992,896.9095284999994,896.9095284999994,899.4938352999998,y,2.571937299999263,None,,,,,,,,,,,,,,,,,,,,,,,sub-007,COM3,3,2024-01-29_09h04.48.910,2024_RDpaindiscrimination_calibration,2023.2.3,59.97537411119165,2024-01-29 09h05.02.456810 -0500,
2,0,2,0,2,0,2,0,,,,,899.5094884999999,,,,,,,,899.4944197999994,899.5094884999999,900.6771669,43,2.2,900.6774304999999,902.8768031,902.8768184,912.8778243999996,912.8778366999995,915.6973688999997,0.0,0.0,2.748,915.6976574999999,915.7098952999995,915.7098952999995,918.0441698999994,y,2.3233484000002136,None,,,,,,,,,,,,,,,,,,,,,,,sub-007,COM3,3,2024-01-29_09h04.48.910,2024_RDpaindiscrimination_calibration,2023.2.3,59.97537411119165,2024-01-29 09h05.02.456810 -0500,
2,0,2,0,3,0,3,0,,,,,918.0599487,,,,,,,,918.0447516999993,918.0599487,919.2442236999996,44,2.3,919.2444775999993,921.5439256999998,921.5439409,931.5448452999999,931.5448581,935.1182536999995,0.9999999999999969,0.9999999999999969,3.502,935.1191208999999,935.1437053,935.1437053,937.8946606,y,2.7498451999999816,None,,,,,,,,,,,,,,,,,,,,,,,sub-007,COM3,3,2024-01-29_09h04.48.910,2024_RDpaindiscrimination_calibration,2023.2.3,59.97537411119165,2024-01-29 09h05.02.456810 -0500,
2,0,2,0,4,0,4,0,,,,,937.9104379999999,,,,,,,,937.8952394999997,937.9104379999999,938.9781426999998,45,2.0,938.9784028999993,940.9777621999992,940.9777768999993,950.9787811999995,950.9787938999998,956.0852244999996,15.000000000000032,15.000000000000032,5.035,956.0861027999999,956.1108934999993,956.1108934999993,958.4453549,y,2.3304641000004267,None,,,,,,,,,,,,,,,,,,,,,,,sub-007,COM3,3,2024-01-29_09h04.48.910,2024_RDpaindiscrimination_calibration,2023.2.3,59.97537411119165,2024-01-29 09h05.02.456810 -0500,
2,0,2,0,5,0,5,0,,,,,958.4609562999995,,,,,,,,958.4459350999996,958.4609562999995,960.1453153999992,46,2.3,960.1455812999993,962.4448746999997,962.4448888999996,972.4459817999996,972.4459947999994,976.0027495999993,34.00000000000002,34.00000000000002,3.486,976.0036308999997,976.0281768999994,976.0281768999994,978.7123640999998,y,2.6691736000002493,None,,,,,,,,,,,,,,,,,,,,,,,sub-007,COM3,3,2024-01-29_09h04.48.910,2024_RDpaindiscrimination_calibration,2023.2.3,59.97537411119165,2024-01-29 09h05.02.456810 -0500,
2,0,2,0,6,0,6,0,,,,,978.7282261999999,,,,,,,,978.7129417999995,978.7282261999999,979.7623956999996,47,2.2,979.7626640999997,981.9620400999993,981.9620557999997,991.9631327999996,991.9631454999999,999.9498676999992,44.99999999999992,44.99999999999992,7.915,999.9501640999997,999.9619831999998,999.9619831999998,1003.7963823,y,3.827852000000348,None,,,,,,,,,,,,,,,,,,,,,,,sub-007,COM3,3,2024-01-29_09h04.48.910,2024_RDpaindiscrimination_calibration,2023.2.3,59.97537411119165,2024-01-29 09h05.02.456810 -0500,
2,0,2,0,7,0,7,0,,,,,1003.8120730999999,,,,,,,,1003.7969662999994,1003.8120730999999,1004.8297073999993,48,2.5,1004.8299781999995,1007.3294044999993,1007.3294192999992,1017.3303344999995,1017.3303465999998,1022.2672213999995,52.5000000000001,52.5000000000001,4.865,1022.2676337999992,1022.2793108999995,1022.2793108999995,1027.5804266999994,n,5.297930499999893,None,,,,,,,,,,,,,,,,,,,,,,,sub-007,COM3,3,2024-01-29_09h04.48.910,2024_RDpaindiscrimination_calibration,2023.2.3,59.97537411119165,2024-01-29 09h05.02.456810 -0500,
2,0,2,0,,,,,,,,,,,,,,,,,,,,,,,,,,,,,,,,,,,,,,1027.5808358999993,1031.5799127999999,,,,,,,,,,,,,,,,,,,,,sub-007,COM3,3,2024-01-29_09h04.48.910,2024_RDpaindiscrimination_calibration,2023.2.3,59.97537411119165,2024-01-29 09h05.02.456810 -0500,
,,,,,,,,0,0,0,0,1060.3968273,,,,,,,,,,,,2.1,,,,,,,52.99999999999989,,,,,,,,,,,,1031.5799552999997,1036.5962925999993,1036.5963053999994,1060.3810154999992,1060.3818002999997,1060.3968273,1062.9313475,1062.9313647999998,1065.0307518999998,1065.0307722999996,1075.0317714999992,1075.0317854999994,1080.5306559,1080.5178993999998,None,48.0,None,None,,,sub-007,COM3,3,2024-01-29_09h04.48.910,2024_RDpaindiscrimination_calibration,2023.2.3,59.97537411119165,2024-01-29 09h05.02.456810 -0500,
,,,,,,,,1,0,1,0,1080.5306559,,,,,,,,,,,,2.3,,,,,,,2.000000000000023,,,,,,,,,,,,,,,,1080.5189487999996,1080.5306559,1081.9316229999995,1081.9316396999993,1084.2312186999998,1084.2312348999994,1094.2324771999993,1094.2324900999993,1097.6978540999999,1097.6724368999994,None,42.9,None,None,,,sub-007,COM3,3,2024-01-29_09h04.48.910,2024_RDpaindiscrimination_calibration,2023.2.3,59.97537411119165,2024-01-29 09h05.02.456810 -0500,
,,,,,,,,2,0,2,0,1097.6978540999999,,,,,,,,,,,,2.5,,,,,,,3.0000000000001292,,,,,,,,,,,,,,,,1097.6747836999994,1097.6978540999999,1098.9486930999992,1098.9487093999996,1101.4483996999998,1101.4484157999996,1111.4494719999993,1111.4494861999992,1116.0148837999996,1115.9889392999994,None,44.8,None,None,,,sub-007,COM3,3,2024-01-29_09h04.48.910,2024_RDpaindiscrimination_calibration,2023.2.3,59.97537411119165,2024-01-29 09h05.02.456810 -0500,
,,,,,,,,3,0,3,0,1116.0148837999996,,,,,,,,,,,,2.5,,,,,,,0.0,,,,,,,,,,,,,,,,1115.9912482,1116.0148837999996,1117.6326987999992,1117.6327156999996,1120.1322207999992,1120.1322373999992,1130.1332401999998,1130.1332534999992,1134.3653325999994,1134.3544503999992,None,45.7,None,None,,,sub-007,COM3,3,2024-01-29_09h04.48.910,2024_RDpaindiscrimination_calibration,2023.2.3,59.97537411119165,2024-01-29 09h05.02.456810 -0500,
,,,,,,,,4,0,4,0,1134.3653325999994,,,,,,,,,,,,2.3,,,,,,,22.99999999999999,,,,,,,,,,,,,,,,1134.3559989999994,1134.3653325999994,1136.5665397999992,1136.5665568999993,1138.8659462999995,1138.8659632999997,1148.8670432999998,1148.8670567999998,1153.8326141999996,1153.8076493999997,None,46.6,None,None,,,sub-007,COM3,3,2024-01-29_09h04.48.910,2024_RDpaindiscrimination_calibration,2023.2.3,59.97537411119165,2024-01-29 09h05.02.456810 -0500,
,,,,,,,,5,0,5,0,1153.8326141999996,,,,,,,,,,,,2.4,,,,,,,0.0,,,,,,,,,,,,,,,,1153.8100787999992,1153.8326141999996,1155.0500678999997,1155.0500851999996,1157.4498045999999,1157.4498209999992,1167.4508121999997,1167.4508250999997,1169.6163158999998,1169.5906287999996,None,43.4,None,None,,,sub-007,COM3,3,2024-01-29_09h04.48.910,2024_RDpaindiscrimination_calibration,2023.2.3,59.97537411119165,2024-01-29 09h05.02.456810 -0500,
,,,,,,,,6,0,6,0,1169.6163158999998,,,,,,,,,,,,2.5,,,,,,,0.0,,,,,,,,,,,,,,,,1169.5929755999996,1169.6163158999998,1171.4839362999992,1171.4839527999993,1173.9835469999998,1173.9835636999996,1183.9845873999993,1183.9846013999995,1187.3000868,1187.2754206,None,42.0,None,None,,,sub-007,COM3,3,2024-01-29_09h04.48.910,2024_RDpaindiscrimination_calibration,2023.2.3,59.97537411119165,2024-01-29 09h05.02.456810 -0500,
,,,,,,,,7,0,7,0,1187.3000868,,,,,,,,,,,,2.4,,,,,,,54.00000000000006,,,,,,,,,,,,,,,,1187.2777825999992,1187.3000868,1189.5511005999997,1189.5511170999998,1191.9506054999993,1191.9506218999995,1201.9516748999995,1201.9516891999992,1208.6004991,1208.5870244999996,None,47.5,None,None,,,sub-007,COM3,3,2024-01-29_09h04.48.910,2024_RDpaindiscrimination_calibration,2023.2.3,59.97537411119165,2024-01-29 09h05.02.456810 -0500,
,,,,,,,,8,0,8,0,1208.6004991,,,,,,,,,,,,2.1,,,,,,,0.0,,,,,,,,,,,,,,,,1208.58781,1208.6004991,1209.9516455999992,1209.9516612999996,1212.051106,1212.0511225,1222.0521853,1222.0521983999997,1224.2343370999997,1224.2082173,None,43.8,None,None,,,sub-007,COM3,3,2024-01-29_09h04.48.910,2024_RDpaindiscrimination_calibration,2023.2.3,59.97537411119165,2024-01-29 09h05.02.456810 -0500,
,,,,,,,,9,0,9,0,1224.2343370999997,,,,,,,,,,,,2.4,,,,,,,43.99999999999992,,,,,,,,,,,,,,,,1224.2105444,1224.2343370999997,1225.7185106999996,1225.7185273999994,1228.1182074999997,1228.1182239,1238.1193588999995,1238.1193721999998,1244.8181809999996,1244.7934161999992,None,47.1,None,None,,,sub-007,COM3,3,2024-01-29_09h04.48.910,2024_RDpaindiscrimination_calibration,2023.2.3,59.97537411119165,2024-01-29 09h05.02.456810 -0500,
,,,,,,,,10,0,10,0,1244.8181809999996,,,,,,,,,,,,2.2,,,,,,,26.49999999999998,,,,,,,,,,,,,,,,1244.7957778,1244.8181809999996,1246.5191474999992,1246.5191642,1248.7184647999993,1248.7184807999993,1258.7197938999998,1258.7198069999995,1261.8186028999999,1261.7949902999999,None,46.2,None,None,,,sub-007,COM3,3,2024-01-29_09h04.48.910,2024_RDpaindiscrimination_calibration,2023.2.3,59.97537411119165,2024-01-29 09h05.02.456810 -0500,
,,,,,,,,11,0,11,0,1261.8186028999999,,,,,,,,,,,,2.2,,,,,,,2.9999999999999964,,,,,,,,,,,,,,,,1261.7973704999995,1261.8186028999999,1263.7695271999992,1263.7695430999993,1265.9691252999992,1265.9691415999996,1275.9702891999996,1275.9703022999993,1278.9355926999997,1278.9245879999999,None,45.2,None,None,,,sub-007,COM3,3,2024-01-29_09h04.48.910,2024_RDpaindiscrimination_calibration,2023.2.3,59.97537411119165,2024-01-29 09h05.02.456810 -0500,
,,,,,,,,12,0,12,0,1278.9355926999997,,,,,,,,,,,,2.1,,,,,,,0.0,,,,,,,,,,,,,,,,1278.925956,1278.9355926999997,1280.1032397999998,1280.1032563999997,1282.2028053999993,1282.2028218999994,1292.2039262999997,1292.2039394999993,1295.0860249999996,1295.0619514,None,44.3,None,None,,,sub-007,COM3,3,2024-01-29_09h04.48.910,2024_RDpaindiscrimination_calibration,2023.2.3,59.97537411119165,2024-01-29 09h05.02.456810 -0500,
,,,,,,,,13,0,13,0,1295.0860249999996,,,,,,,,,,,,2.2,,,,,,,0.0,,,,,,,,,,,,,,,,1295.064292,1295.0860249999996,1296.2202564999998,1296.2202736999998,1298.4199105999996,1298.4199263,1308.4210113,1308.4210248999998,1311.4864066999999,1311.4583837999999,None,42.5,None,None,,,sub-007,COM3,3,2024-01-29_09h04.48.910,2024_RDpaindiscrimination_calibration,2023.2.3,59.97537411119165,2024-01-29 09h05.02.456810 -0500,
,,,,,,,,,,,,,,,,,,,,,,,,,,,,,,,,,,,,,,,,,,,,,,,,,,,,,,,,,,,,,1311.4594987,1316.4699053999993,,,,,,,,,
