trials.thisRepN,trials.thisTrialN,trials.thisN,trials.thisIndex,loop_test.thisRepN,loop_test.thisTrialN,loop_test.thisN,loop_test.thisIndex,loop_eval_discri.thisRepN,loop_eval_discri.thisTrialN,loop_eval_discri.thisN,loop_eval_discri.thisIndex,loop_eval.thisRepN,loop_eval.thisTrialN,loop_eval.thisN,loop_eval.thisIndex,loop_discri.thisRepN,loop_discri.thisTrialN,loop_discri.thisN,loop_discri.thisIndex,thisRow.t,notes,Set_up.started,Set_up.stopped,electrode_check.started,electrode_check.stopped,instructions_eval.started,instructions_eval.stopped,pause_5_test.started,pause_5_test.stopped,Phase_Test.started,thermode_locali.started,thermode_locali.stopped,Phase_Test.stopped,loca_thermode,condition,temp_trial_sent,eval_douleur.started,eval_douleur.stopped,ratingScale.response,ratingScale.rt,Fin_test.started,text.started,Fin_test.stopped,pause_5_EVA.started,pause_5_EVA.stopped,tâche_EVA.started,thermode_locali_EVA.started,thermode_locali_EVA.stopped,tâche_EVA.stopped,instructions_discrim.started,instructions_discrim.stopped,pause_5_pic.started,pause_5_pic.stopped,tâche_PIC.started,thermode_locali_pic.started,percu_or.started,responser.started,percu_or.stopped,responser.stopped,thermode_locali_pic.stopped,tâche_PIC.stopped,dur_plateau1,dur_plateau2,dur_plateau1_sent,dur_plateau2_sent,start_plateau_2_resp,dur_pic,dur_rise,pic_presence,pic_response,discrimin_resp.keys,discrimin_resp.rt,discrimin_resp.duration,break_entre_bloc.started,break_entre_bloc.stopped,merci.started,merci.stopped,participant,temp_flat,temp_active,temp_pic_set,com_thermode,date,expName,psychopyVersion,frameRate,expStart,
0,0,0,0,0,0,0,0,,,,,,,,,,,,,109.60854779998772,,0.006120599980931729,99.84264009998878,99.84339599998202,104.75945069998852,104.75946589998784,109.59278409997933,109.593406400003,114.59251309998217,114.59252539998852,114.60866629998782,124.69222109997645,124.59324769998784,0,inactive,46.8,124.59326199998031,128.89443970000139,58.99999999999993,4.214,,,,,,,,,,,,,,,,,,,,,,,,,,,,,,,,,,,,,,sub-004,46.8,45.6,47.8,COM3,2024-01-25_09h39.48.355,2024_RDpaindiscrimination_maintask,2023.2.3,59.99188909419783,2024-01-25 09h40.23.378370 -0500,
0,0,0,0,1,0,1,0,,,,,,,,,,,,,128.90901649999432,,,,,,,,128.89511240000138,133.89294339998742,133.89295519998996,133.92591869999887,,143.9094114000036,1,inactive,46.8,143.90942489998997,147.41237469998305,49.4999999999999,3.429,,,,,,,,,,,,,,,,,,,,,,,,,,,,,,,,,,,,,,sub-004,46.8,45.6,47.8,COM3,2024-01-25_09h39.48.355,2024_RDpaindiscrimination_maintask,2023.2.3,59.99188909419783,2024-01-25 09h40.23.378370 -0500,
0,0,0,0,2,0,2,0,,,,,,,,,,,,,147.4261263999797,,,,,,,,147.41296839999268,152.41005619999487,152.41006759999436,152.426226999989,162.49313039999106,162.41082849999657,2,active,46.8,162.41084229998523,167.01309449999826,1.5000000000002007,4.528,,,,,,,,,,,,,,,,,,,,,,,,,,,,,,,,,,,,,,sub-004,46.8,45.6,47.8,COM3,2024-01-25_09h39.48.355,2024_RDpaindiscrimination_maintask,2023.2.3,59.99188909419783,2024-01-25 09h40.23.378370 -0500,
0,0,0,0,3,0,3,0,,,,,,,,,,,,,167.04339429998072,,,,,,,,167.0148738999851,172.02677549998043,172.0267862000037,172.04347979999147,,182.02699819998816,3,active,46.8,182.0270125999814,185.762213399983,2.005340338229189e-13,3.661,,,,,,,,,,,,,,,,,,,,,,,,,,,,,,,,,,,,,,sub-004,46.8,45.6,47.8,COM3,2024-01-25_09h39.48.355,2024_RDpaindiscrimination_maintask,2023.2.3,59.99188909419783,2024-01-25 09h40.23.378370 -0500,
0,0,0,0,4,0,4,0,,,,,,,,,,,,,185.77703229998588,,,,,,,,185.76280989998486,190.76096469999175,190.76097609999124,190.7771492000029,200.84406029997626,200.76170020000427,0,inactive,46.8,200.76171419999446,203.7465914999775,65.99999999999987,2.911,,,,,,,,,,,,,,,,,,,,,,,,,,,,,,,,,,,,,,sub-004,46.8,45.6,47.8,COM3,2024-01-25_09h39.48.355,2024_RDpaindiscrimination_maintask,2023.2.3,59.99188909419783,2024-01-25 09h40.23.378370 -0500,
0,0,0,0,5,0,5,0,,,,,,,,,,,,,203.77749809998204,,,,,,,,203.74836259998847,208.7609782999789,208.7609885999991,208.7775621000037,,218.76120419998188,1,active,46.8,218.76121789999888,222.23071879998315,3.5000000000001292,3.396,,,,,,,,,,,,,,,,,,,,,,,,,,,,,,,,,,,,,,sub-004,46.8,45.6,47.8,COM3,2024-01-25_09h39.48.355,2024_RDpaindiscrimination_maintask,2023.2.3,59.99188909419783,2024-01-25 09h40.23.378370 -0500,
0,0,0,0,6,0,6,0,,,,,,,,,,,,,222.26131909998367,,,,,,,,222.23249969998142,227.24474599998211,227.24475630000234,227.26145170000382,,237.24497569998493,2,inactive,46.8,237.24498909999966,240.363890299981,62.49999999999986,3.045,,,,,,,,,,,,,,,,,,,,,,,,,,,,,,,,,,,,,,sub-004,46.8,45.6,47.8,COM3,2024-01-25_09h39.48.355,2024_RDpaindiscrimination_maintask,2023.2.3,59.99188909419783,2024-01-25 09h40.23.378370 -0500,
0,0,0,0,7,0,7,0,,,,,,,,,,,,,240.37832530000014,,,,,,,,240.3645150999946,245.36230759997852,245.3623187999765,245.37843169999542,255.44534340000246,255.36301279999316,3,inactive,46.8,255.36302729998715,258.41508360000444,54.49999999999996,2.977,,,,,,,,,,,,,,,,,,,,,,,,,,,,,,,,,,,,,,sub-004,46.8,45.6,47.8,COM3,2024-01-25_09h39.48.355,2024_RDpaindiscrimination_maintask,2023.2.3,59.99188909419783,2024-01-25 09h40.23.378370 -0500,
0,0,0,0,8,0,8,0,,,,,,,,,,,,,258.4287555999763,,,,,,,,258.41570479999064,263.4126919999835,263.41270349998376,263.42885629998636,273.52909229998477,273.41442869999446,0,active,46.8,273.4144668999943,275.43207979999715,0.0,1.931,,,,,,,,,,,,,,,,,,,,,,,,,,,,,,,,,,,,,,sub-004,46.8,45.6,47.8,COM3,2024-01-25_09h39.48.355,2024_RDpaindiscrimination_maintask,2023.2.3,59.99188909419783,2024-01-25 09h40.23.378370 -0500,
0,0,0,0,9,0,9,0,,,,,,,,,,,,,275.46264129999327,,,,,,,,275.43383629998425,280.4459905999829,280.4460010000039,280.4626087999786,,290.44622129999334,1,active,46.8,290.4462345999782,292.28088889998617,0.0,1.76,,,,,,,,,,,,,,,,,,,,,,,,,,,,,,,,,,,,,,sub-004,46.8,45.6,47.8,COM3,2024-01-25_09h39.48.355,2024_RDpaindiscrimination_maintask,2023.2.3,59.99188909419783,2024-01-25 09h40.23.378370 -0500,
0,0,0,0,10,0,10,0,,,,,,,,,,,,,292.2962495999818,,,,,,,,292.28150579999783,297.2802049999882,297.2802163999877,297.2964318000013,307.3632340999902,307.2808895999915,2,inactive,46.8,307.28090389998397,310.3482584999874,65.50000000000001,2.993,,,,,,,,,,,,,,,,,,,,,,,,,,,,,,,,,,,,,,sub-004,46.8,45.6,47.8,COM3,2024-01-25_09h39.48.355,2024_RDpaindiscrimination_maintask,2023.2.3,59.99188909419783,2024-01-25 09h40.23.378370 -0500,
0,0,0,0,11,0,11,0,,,,,,,,,,,,,310.36332039997797,,,,,,,,310.34885969999596,315.34726859998773,315.3472799999872,315.3634367999912,325.43034939997597,325.3479211999802,3,inactive,46.8,325.34793599997647,328.44865919998847,26.50000000000012,3.026,,,,,,,,,,,,,,,,,,,,,,,,,,,,,,,,,,,,,,sub-004,46.8,45.6,47.8,COM3,2024-01-25_09h39.48.355,2024_RDpaindiscrimination_maintask,2023.2.3,59.99188909419783,2024-01-25 09h40.23.378370 -0500,
0,0,0,0,12,0,12,0,,,,,,,,,,,,,328.4637484999839,,,,,,,,328.44925740000326,333.4477005999943,333.44771199999377,333.46385089997784,343.5307614999765,343.44846389998565,0,active,46.8,343.44847809997736,346.4993665999791,0.0,2.976,,,,,,,,,,,,,,,,,,,,,,,,,,,,,,,,,,,,,,sub-004,46.8,45.6,47.8,COM3,2024-01-25_09h39.48.355,2024_RDpaindiscrimination_maintask,2023.2.3,59.99188909419783,2024-01-25 09h40.23.378370 -0500,
0,0,0,0,13,0,13,0,,,,,,,,,,,,,346.5141781999846,,,,,,,,346.4999668999808,351.49811689998023,351.4981282999797,351.5142929999856,361.58120039998903,361.4988623999816,1,inactive,46.8,361.49887599999784,365.89981350000016,25.00000000000016,4.327,,,,,,,,,,,,,,,,,,,,,,,,,,,,,,,,,,,,,,sub-004,46.8,45.6,47.8,COM3,2024-01-25_09h39.48.355,2024_RDpaindiscrimination_maintask,2023.2.3,59.99188909419783,2024-01-25 09h40.23.378370 -0500,
0,0,0,0,14,0,14,0,,,,,,,,,,,,,365.91476580000017,,,,,,,,365.9010655999882,370.8985971999937,370.8986089999962,370.91473580000456,380.981664299994,380.8993117999926,2,active,46.8,380.899325699982,383.750948699977,4.500000000000022,2.777,,,,,,,,,,,,,,,,,,,,,,,,,,,,,,,,,,,,,,sub-004,46.8,45.6,47.8,COM3,2024-01-25_09h39.48.355,2024_RDpaindiscrimination_maintask,2023.2.3,59.99188909419783,2024-01-25 09h40.23.378370 -0500,
0,0,0,0,15,0,15,0,,,,,,,,,,,,,383.78179269999964,,,,,,,,383.75271209998755,388.7652276000008,388.76523829999496,388.781843499979,,398.7654718999984,3,active,46.8,398.7654855999863,400.4015939999954,1.999999999999988,1.562,,,,,,,,,,,,,,,,,,,,,,,,,,,,,,,,,,,,,,sub-004,46.8,45.6,47.8,COM3,2024-01-25_09h39.48.355,2024_RDpaindiscrimination_maintask,2023.2.3,59.99188909419783,2024-01-25 09h40.23.378370 -0500,
0,0,0,0,,,,,0,0,0,0,0,0,0,0,,,,,433.8328731999791,,,,,,427.8179471999756,433.8171833999804,,,,,,,0,active,46.8,448.8176234999846,452.36907479999354,55.499999999999886,3.478,400.4019749999861,400.4154576000001,427.81726689997595,433.8177992999845,438.8168361999851,438.81684929999756,438.83302849999745,448.8999416999868,448.8176103000005,,,,,,,,,,,,,,,,,,,,,,,,,,,,,sub-004,46.8,45.6,47.8,COM3,2024-01-25_09h39.48.355,2024_RDpaindiscrimination_maintask,2023.2.3,59.99188909419783,2024-01-25 09h40.23.378370 -0500,
0,0,0,0,,,,,0,0,0,0,1,0,1,0,,,,,452.3834116999933,,,,,,,,,,,,,,1,inactive,46.8,467.368049599987,469.06901559999096,50.0,1.627,,,,452.3701108999958,457.36738109998987,457.3673933999962,457.3834758999874,467.45036039999104,467.36803779998445,,,,,,,,,,,,,,,,,,,,,,,,,,,,,sub-004,46.8,45.6,47.8,COM3,2024-01-25_09h39.48.355,2024_RDpaindiscrimination_maintask,2023.2.3,59.99188909419783,2024-01-25 09h40.23.378370 -0500,
0,0,0,0,,,,,0,0,0,0,,,,,0,0,0,0,473.4838531999849,,,,,,,,,,,,,,2,inactive,,,,,,,,,,,,,,,469.06937499999185,473.4680858999782,473.4687396999798,478.46789709999575,478.46790999997756,478.50062079998315,485.96748439999647,485.96748439999647,488.9675520999881,488.9675520999881,489.45089879998704,489.4348394999979,3.95,4.1,395,409,7.5,1.2,0.75,pic-absent,0,n,1.000089899986051,None,,,,,sub-004,46.8,45.6,47.8,COM3,2024-01-25_09h39.48.355,2024_RDpaindiscrimination_maintask,2023.2.3,59.99188909419783,2024-01-25 09h40.23.378370 -0500,
0,0,0,0,,,,,0,0,0,0,,,,,1,0,1,0,489.45089879998704,,,,,,,,,,,,,,3,inactive,,,,,,,,,,,,,,,,,489.43687299999874,494.43483109999215,494.43484400000307,494.45101729998714,501.9511518999934,501.9511518999934,504.9512696999882,504.9512696999882,505.40127609999035,505.3850715000008,3.85,4.2,385,420,7.5,1.2,0.75,pic-present,0,n,1.8557015999977011,None,,,,,sub-004,46.8,45.6,47.8,COM3,2024-01-25_09h39.48.355,2024_RDpaindiscrimination_maintask,2023.2.3,59.99188909419783,2024-01-25 09h40.23.378370 -0500,
0,0,0,0,,,,,0,0,0,0,,,,,2,0,2,0,505.40127609999035,,,,,,,,,,,,,,0,active,,,,,,,,,,,,,,,,,505.3866855999804,510.3852504999959,510.3852638999815,510.401380700001,517.9015583999862,517.9015583999862,520.901624399994,520.901624399994,521.3516670999816,521.3354991999804,3.57,4.48,357,448,7.5,1.2,0.75,pic-absent,0,n,0.49415899999439716,None,,,,,sub-004,46.8,45.6,47.8,COM3,2024-01-25_09h39.48.355,2024_RDpaindiscrimination_maintask,2023.2.3,59.99188909419783,2024-01-25 09h40.23.378370 -0500,
0,0,0,0,,,,,0,0,0,0,,,,,3,0,3,0,521.3516670999816,,,,,,,,,,,,,,1,active,,,,,,,,,,,,,,,,,521.3370898999856,526.3356193999934,526.3356320000021,526.3517723999976,533.8519279999891,533.8519279999891,536.8519968999899,536.8519968999899,537.302027400001,537.2858364999993,4.21,3.84,421,384,7.5,1.2,0.75,pic-absent,1,m,1.0997520000091754,None,,,,,sub-004,46.8,45.6,47.8,COM3,2024-01-25_09h39.48.355,2024_RDpaindiscrimination_maintask,2023.2.3,59.99188909419783,2024-01-25 09h40.23.378370 -0500,
0,0,0,0,,,,,1,0,1,0,0,0,0,0,,,,,541.3187936999893,,,,,,537.2874798999983,541.3031924999959,,,,,,,2,inactive,46.8,556.3034834999999,559.1708945999853,58.99999999999986,2.793,,,,541.3038291999837,546.3027352999779,546.302747699985,546.3190130000003,556.3857981000037,556.3034718999988,,,,,,,,,,,,,,,,,,,,,,,,,,,,,sub-004,46.8,45.6,47.8,COM3,2024-01-25_09h39.48.355,2024_RDpaindiscrimination_maintask,2023.2.3,59.99188909419783,2024-01-25 09h40.23.378370 -0500,
0,0,0,0,,,,,1,0,1,0,1,0,1,0,,,,,559.1859012999921,,,,,,,,,,,,,,3,active,46.8,574.1705804999801,577.839015799982,3.000000000000058,3.594,,,,559.1714864999813,564.1698745999893,564.1698867999949,564.1860022000037,574.2528691999905,574.1705684000044,,,,,,,,,,,,,,,,,,,,,,,,,,,,,sub-004,46.8,45.6,47.8,COM3,2024-01-25_09h39.48.355,2024_RDpaindiscrimination_maintask,2023.2.3,59.99188909419783,2024-01-25 09h40.23.378370 -0500,
0,0,0,0,,,,,1,0,1,0,,,,,0,0,0,0,581.2030522999994,,,,,,,,,,,,,,0,inactive,,,,,,,,,,,,,,,577.8399590000045,581.1873005999951,581.1879580999957,586.1868894999789,586.1869049999805,586.2031763999839,593.6866930999968,593.6866930999968,596.6867671999789,596.6867671999789,597.1534471999912,597.1372568999941,3.48,4.57,348,457,7.5,1.2,0.75,pic-present,1,m,0.4045390999817755,None,,,,,sub-004,46.8,45.6,47.8,COM3,2024-01-25_09h39.48.355,2024_RDpaindiscrimination_maintask,2023.2.3,59.99188909419783,2024-01-25 09h40.23.378370 -0500,
0,0,0,0,,,,,1,0,1,0,,,,,1,0,1,0,597.1534471999912,,,,,,,,,,,,,,1,active,,,,,,,,,,,,,,,,,597.1390098999836,602.1374138999963,602.1374266999774,602.153660299984,609.6537206999783,609.6537206999783,612.653794199985,612.653794199985,613.10382389999,613.0876291999884,3.4,4.65,340,465,7.5,1.2,0.75,pic-absent,0,n,2.3578238999762107,None,,,,,sub-004,46.8,45.6,47.8,COM3,2024-01-25_09h39.48.355,2024_RDpaindiscrimination_maintask,2023.2.3,59.99188909419783,2024-01-25 09h40.23.378370 -0500,
0,0,0,0,,,,,1,0,1,0,,,,,2,0,2,0,613.10382389999,,,,,,,,,,,,,,2,inactive,,,,,,,,,,,,,,,,,613.0892508999968,618.0877713999944,618.0877837000007,618.1039422999893,625.6040786999802,625.6040786999802,628.6041889000044,628.6041889000044,629.05420459999,629.038027499977,4.05,4.0,405,400,7.5,1.2,0.75,pic-absent,0,n,0.5232574999972712,None,,,,,sub-004,46.8,45.6,47.8,COM3,2024-01-25_09h39.48.355,2024_RDpaindiscrimination_maintask,2023.2.3,59.99188909419783,2024-01-25 09h40.23.378370 -0500,
0,0,0,0,,,,,1,0,1,0,,,,,3,0,3,0,629.05420459999,,,,,,,,,,,,,,3,inactive,,,,,,,,,,,,,,,,,629.0396520999784,634.038172200002,634.03818459998,634.0542821999989,641.5544945999864,641.5544945999864,644.5545664999809,644.5545664999809,645.0045726999815,644.9883919999993,3.66,4.39,366,438,7.5,1.2,0.75,pic-present,1,m,0.42488700000103563,None,,,,,sub-004,46.8,45.6,47.8,COM3,2024-01-25_09h39.48.355,2024_RDpaindiscrimination_maintask,2023.2.3,59.99188909419783,2024-01-25 09h40.23.378370 -0500,
0,0,0,0,,,,,2,0,2,0,0,0,0,0,,,,,647.8379806999874,,,,,,644.9900337999861,647.8223702999821,,,,,,,0,active,46.8,662.8226757999801,665.9907912999915,54.99999999999996,3.094,,,,647.8229929999798,652.8219043999852,652.8219162999885,652.8380976999761,662.9050018999842,662.8226645999821,,,,,,,,,,,,,,,,,,,,,,,,,,,,,sub-004,46.8,45.6,47.8,COM3,2024-01-25_09h39.48.355,2024_RDpaindiscrimination_maintask,2023.2.3,59.99188909419783,2024-01-25 09h40.23.378370 -0500,
0,0,0,0,,,,,2,0,2,0,1,0,1,0,,,,,666.0050784999912,,,,,,,,,,,,,,1,inactive,46.8,680.9908128999814,683.8091341999825,69.4999999999999,2.73,,,,665.9913441999815,670.9890269000025,670.9890392999805,671.0051911999763,681.0888304999971,680.9907801999943,,,,,,,,,,,,,,,,,,,,,,,,,,,,,sub-004,46.8,45.6,47.8,COM3,2024-01-25_09h39.48.355,2024_RDpaindiscrimination_maintask,2023.2.3,59.99188909419783,2024-01-25 09h40.23.378370 -0500,
0,0,0,0,,,,,2,0,2,0,,,,,0,0,0,0,686.1222166999942,,,,,,,,,,,,,,2,active,,,,,,,,,,,,,,,683.8101459000027,686.1064800999884,686.1071585000027,691.1061969999864,691.1062094999943,691.1223364000034,698.6058273999952,698.6058273999952,701.605914499989,701.605914499989,702.0725731999846,702.0564785999886,4.02,4.03,401,403,7.5,1.2,0.75,pic-absent,0,n,1.276852000009967,None,,,,,sub-004,46.8,45.6,47.8,COM3,2024-01-25_09h39.48.355,2024_RDpaindiscrimination_maintask,2023.2.3,59.99188909419783,2024-01-25 09h40.23.378370 -0500,
0,0,0,0,,,,,2,0,2,0,,,,,1,0,1,0,702.0725731999846,,,,,,,,,,,,,,3,active,,,,,,,,,,,,,,,,,702.0582532999979,707.0565299000009,707.056542699982,707.0727121999953,714.5728835999907,714.5728835999907,717.5729595999874,717.5729595999874,718.0229698999901,718.0067736999772,4.15,3.9,415,390,7.5,1.2,0.75,pic-present,1,m,0.6458705000113696,None,,,,,sub-004,46.8,45.6,47.8,COM3,2024-01-25_09h39.48.355,2024_RDpaindiscrimination_maintask,2023.2.3,59.99188909419783,2024-01-25 09h40.23.378370 -0500,
0,0,0,0,,,,,2,0,2,0,,,,,2,0,2,0,718.0229698999901,,,,,,,,,,,,,,0,inactive,,,,,,,,,,,,,,,,,718.008371999982,723.00693459998,723.0069473999902,723.0230712999764,730.5232641999901,730.5232641999901,733.5233196999761,733.5233196999761,733.9733458999835,733.9571451999946,4.19,3.86,419,386,7.5,1.2,0.75,pic-present,1,m,0.7838024999946356,None,,,,,sub-004,46.8,45.6,47.8,COM3,2024-01-25_09h39.48.355,2024_RDpaindiscrimination_maintask,2023.2.3,59.99188909419783,2024-01-25 09h40.23.378370 -0500,
0,0,0,0,,,,,2,0,2,0,,,,,3,0,3,0,733.9733458999835,,,,,,,,,,,,,,1,inactive,,,,,,,,,,,,,,,,,733.9587549999997,738.9573268999811,738.9573394999898,738.973448499979,746.4736407999881,746.4736407999881,749.473691399995,749.473691399995,749.9237145999796,749.9075535000011,3.9,4.15,390,415,7.5,1.2,0.75,pic-absent,0,n,1.2969712000049185,None,,,,,sub-004,46.8,45.6,47.8,COM3,2024-01-25_09h39.48.355,2024_RDpaindiscrimination_maintask,2023.2.3,59.99188909419783,2024-01-25 09h40.23.378370 -0500,
0,0,0,0,,,,,3,0,3,0,0,0,0,0,,,,,752.5070993999834,,,,,,749.9092035999929,752.4914003000013,,,,,,,2,inactive,46.8,767.4918293999799,770.1101113999903,63.99999999999992,2.544,,,,752.4920243999804,757.4910938999965,757.4911091999966,757.5072016999766,767.5741245999816,767.4918181999819,,,,,,,,,,,,,,,,,,,,,,,,,,,,,sub-004,46.8,45.6,47.8,COM3,2024-01-25_09h39.48.355,2024_RDpaindiscrimination_maintask,2023.2.3,59.99188909419783,2024-01-25 09h40.23.378370 -0500,
0,0,0,0,,,,,3,0,3,0,1,0,1,0,,,,,770.1408552999783,,,,,,,,,,,,,,3,active,46.8,785.1246224999777,786.8271062999847,12.499999999999993,1.618,,,,770.1117093999928,775.1243869999889,775.1243978999846,775.1409641999926,,785.1246109999774,,,,,,,,,,,,,,,,,,,,,,,,,,,,,sub-004,46.8,45.6,47.8,COM3,2024-01-25_09h39.48.355,2024_RDpaindiscrimination_maintask,2023.2.3,59.99188909419783,2024-01-25 09h40.23.378370 -0500,
0,0,0,0,,,,,3,0,3,0,,,,,0,0,0,0,789.3246309999959,,,,,,,,,,,,,,0,active,,,,,,,,,,,,,,,786.827476299979,789.3089240999834,789.3095848999801,794.3085792999773,794.3085916999844,794.324870499986,801.8082603999937,801.8082603999937,804.8083316999837,804.8083316999837,805.2749911999854,805.2588483,4.11,3.94,411,394,7.5,1.2,0.75,pic-present,1,m,1.6579878999909852,None,,,,,sub-004,46.8,45.6,47.8,COM3,2024-01-25_09h39.48.355,2024_RDpaindiscrimination_maintask,2023.2.3,59.99188909419783,2024-01-25 09h40.23.378370 -0500,
0,0,0,0,,,,,3,0,3,0,,,,,1,0,1,0,805.2749911999854,,,,,,,,,,,,,,1,inactive,,,,,,,,,,,,,,,,,805.2606034999772,810.2590030999854,810.2590155999933,810.2751581999764,817.7753023999976,817.7753023999976,820.775390499999,820.775390499999,821.2253841999918,821.2092196999874,3.88,4.17,388,417,7.5,1.2,0.75,pic-absent,0,n,0.9787771999835968,None,,,,,sub-004,46.8,45.6,47.8,COM3,2024-01-25_09h39.48.355,2024_RDpaindiscrimination_maintask,2023.2.3,59.99188909419783,2024-01-25 09h40.23.378370 -0500,
0,0,0,0,,,,,3,0,3,0,,,,,2,0,2,0,821.2253841999918,,,,,,,,,,,,,,2,active,,,,,,,,,,,,,,,,,821.210814799997,826.2093622999964,826.2093748000043,826.2255038000003,833.7256797000009,833.7256797000009,836.7257678000024,836.7257678000024,837.1757409999846,837.1595996999822,3.52,4.53,352,453,7.5,1.2,0.75,pic-present,0,n,1.872822899982566,None,,,,,sub-004,46.8,45.6,47.8,COM3,2024-01-25_09h39.48.355,2024_RDpaindiscrimination_maintask,2023.2.3,59.99188909419783,2024-01-25 09h40.23.378370 -0500,
0,0,0,0,,,,,3,0,3,0,,,,,3,0,3,0,837.1757409999846,,,,,,,,,,,,,,3,active,,,,,,,,,,,,,,,,,837.1611961000017,842.1597227999882,842.1597360000014,842.1759046999796,849.6760738999874,849.6760738999874,852.6761451999773,852.6761451999773,853.1428268000018,853.109953999985,3.5,4.55,350,455,7.5,1.2,0.75,pic-present,0,n,1.7745995000004768,None,,,,,sub-004,46.8,45.6,47.8,COM3,2024-01-25_09h39.48.355,2024_RDpaindiscrimination_maintask,2023.2.3,59.99188909419783,2024-01-25 09h40.23.378370 -0500,
1,0,1,0,0,0,0,0,,,,,,,,,,,,,936.111436999985,,,,918.0622411999793,929.4955746999767,929.495589099999,936.0956920000026,936.0963531000016,941.0953766999883,941.0953880999878,941.1115466999763,951.1951425999869,951.0961593999818,0,active,46.8,951.0961731999996,954.49732949998,0.0,3.316,,,,,,,,,,,,,,,,,,,,,,,,,,,,,,,,,,853.1114120999991,918.0619659999793,,,sub-004,46.8,45.6,47.8,COM3,2024-01-25_09h39.48.355,2024_RDpaindiscrimination_maintask,2023.2.3,59.99188909419783,2024-01-25 09h40.23.378370 -0500,
1,0,1,0,1,0,1,0,,,,,,,,,,,,,954.5118710999959,,,,,,,,954.4979878999875,959.4958098999923,959.4958208999888,959.512009899976,969.5789108999888,969.4962893999764,1,active,46.8,969.4963053999818,973.3982136999839,3.0000000000001292,3.828,,,,,,,,,,,,,,,,,,,,,,,,,,,,,,,,,,,,,,sub-004,46.8,45.6,47.8,COM3,2024-01-25_09h39.48.355,2024_RDpaindiscrimination_maintask,2023.2.3,59.99188909419783,2024-01-25 09h40.23.378370 -0500,
1,0,1,0,2,0,2,0,,,,,,,,,,,,,973.412333299988,,,,,,,,973.3987899999775,978.3963284999772,978.3963399999775,978.4124416999985,988.479336599994,988.3970110999944,2,inactive,46.8,988.3970260999922,991.1996865999827,67.9999999999999,2.729,,,,,,,,,,,,,,,,,,,,,,,,,,,,,,,,,,,,,,sub-004,46.8,45.6,47.8,COM3,2024-01-25_09h39.48.355,2024_RDpaindiscrimination_maintask,2023.2.3,59.99188909419783,2024-01-25 09h40.23.378370 -0500,
1,0,1,0,3,0,3,0,,,,,,,,,,,,,991.2294514999958,,,,,,,,991.2014474000025,996.2129210999992,996.2129321999964,996.2297964000027,,1006.2131655999983,3,active,46.8,1006.2131794999877,1008.9150614999817,0.0,2.628,,,,,,,,,,,,,,,,,,,,,,,,,,,,,,,,,,,,,,sub-004,46.8,45.6,47.8,COM3,2024-01-25_09h39.48.355,2024_RDpaindiscrimination_maintask,2023.2.3,59.99188909419783,2024-01-25 09h40.23.378370 -0500,
1,0,1,0,4,0,4,0,,,,,,,,,,,,,1008.9298422999855,,,,,,,,1008.9156468999863,1013.9137973999896,1013.913808799989,1013.9299371999805,1023.9968629999785,1023.9144334000011,0,inactive,46.8,1023.9144468999875,1028.2170458000037,68.49999999999993,4.228,,,,,,,,,,,,,,,,,,,,,,,,,,,,,,,,,,,,,,sub-004,46.8,45.6,47.8,COM3,2024-01-25_09h39.48.355,2024_RDpaindiscrimination_maintask,2023.2.3,59.99188909419783,2024-01-25 09h40.23.378370 -0500,
1,0,1,0,5,0,5,0,,,,,,,,,,,,,1028.2470867999946,,,,,,,,1028.2188093999866,1033.2304812999791,1033.230491800001,1033.247064199997,,1043.2307115999865,1,inactive,46.8,1043.2307254000043,1046.432178899995,66.99999999999983,3.128,,,,,,,,,,,,,,,,,,,,,,,,,,,,,,,,,,,,,,sub-004,46.8,45.6,47.8,COM3,2024-01-25_09h39.48.355,2024_RDpaindiscrimination_maintask,2023.2.3,59.99188909419783,2024-01-25 09h40.23.378370 -0500,
1,0,1,0,6,0,6,0,,,,,,,,,,,,,1046.4475071999768,,,,,,,,1046.4333819999883,1051.4313438999816,1051.4313556999841,1051.447510099999,1061.5144182999793,1061.4320921000035,2,active,46.8,1061.4321061999945,1062.934637600003,0.0,1.429,,,,,,,,,,,,,,,,,,,,,,,,,,,,,,,,,,,,,,sub-004,46.8,45.6,47.8,COM3,2024-01-25_09h39.48.355,2024_RDpaindiscrimination_maintask,2023.2.3,59.99188909419783,2024-01-25 09h40.23.378370 -0500,
1,0,1,0,7,0,7,0,,,,,,,,,,,,,1062.9645686000003,,,,,,,,1062.9363322999852,1067.9479565999936,1067.9479666999832,1067.9645542999788,,1077.9481775999884,3,inactive,46.8,1077.9481908000016,1080.2174376999901,61.49999999999993,2.193,,,,,,,,,,,,,,,,,,,,,,,,,,,,,,,,,,,,,,sub-004,46.8,45.6,47.8,COM3,2024-01-25_09h39.48.355,2024_RDpaindiscrimination_maintask,2023.2.3,59.99188909419783,2024-01-25 09h40.23.378370 -0500,
1,0,1,0,8,0,8,0,,,,,,,,,,,,,1080.2315079999971,,,,,,,,1080.218014299986,1085.2154525999795,1085.2154640999797,1085.231643999985,1095.2985113000032,1095.2162321999785,0,inactive,46.8,1095.2162459999963,1096.967183300003,50.0,1.677,,,,,,,,,,,,,,,,,,,,,,,,,,,,,,,,,,,,,,sub-004,46.8,45.6,47.8,COM3,2024-01-25_09h39.48.355,2024_RDpaindiscrimination_maintask,2023.2.3,59.99188909419783,2024-01-25 09h40.23.378370 -0500,
1,0,1,0,9,0,9,0,,,,,,,,,,,,,1096.9819202999934,,,,,,,,1096.9677721000044,1101.9658610999759,1101.965872699977,1101.982042699994,1112.0489462999976,1111.966607099981,1,active,46.8,1111.9666215000034,1115.4857633999782,0.0,3.446,,,,,,,,,,,,,,,,,,,,,,,,,,,,,,,,,,,,,,sub-004,46.8,45.6,47.8,COM3,2024-01-25_09h39.48.355,2024_RDpaindiscrimination_maintask,2023.2.3,59.99188909419783,2024-01-25 09h40.23.378370 -0500,
1,0,1,0,10,0,10,0,,,,,,,,,,,,,1115.5158124000009,,,,,,,,1115.4874950999802,1120.4992047999986,1120.499214999989,1120.515811499994,,1130.4994169999845,2,inactive,46.8,1130.4994307000015,1133.0345794000023,60.500000000000036,2.461,,,,,,,,,,,,,,,,,,,,,,,,,,,,,,,,,,,,,,sub-004,46.8,45.6,47.8,COM3,2024-01-25_09h39.48.355,2024_RDpaindiscrimination_maintask,2023.2.3,59.99188909419783,2024-01-25 09h40.23.378370 -0500,
1,0,1,0,11,0,11,0,,,,,,,,,,,,,1133.049526399991,,,,,,,,1133.0354963999998,1138.033486500004,1138.0334978000028,1138.0495307999954,1148.1164617000031,1148.034259099979,3,active,46.8,1148.0342728999967,1152.184670799994,0.0,4.077,,,,,,,,,,,,,,,,,,,,,,,,,,,,,,,,,,,,,,sub-004,46.8,45.6,47.8,COM3,2024-01-25_09h39.48.355,2024_RDpaindiscrimination_maintask,2023.2.3,59.99188909419783,2024-01-25 09h40.23.378370 -0500,
1,0,1,0,12,0,12,0,,,,,,,,,,,,,1152.199898699997,,,,,,,,1152.185252700001,1157.1839560999942,1157.183967399993,1157.2000140000018,1167.2668988999794,1167.1845988999994,0,active,46.8,1167.184613099991,1169.4025991999952,0.0,2.144,,,,,,,,,,,,,,,,,,,,,,,,,,,,,,,,,,,,,,sub-004,46.8,45.6,47.8,COM3,2024-01-25_09h39.48.355,2024_RDpaindiscrimination_maintask,2023.2.3,59.99188909419783,2024-01-25 09h40.23.378370 -0500,
1,0,1,0,13,0,13,0,,,,,,,,,,,,,1169.416962599993,,,,,,,,1169.4031810000015,1174.4009364999947,1174.4009487000003,1174.4170913999842,1184.4839967000007,1184.4016452999786,1,inactive,46.8,1184.4016593999986,1186.853352199978,60.0,2.378,,,,,,,,,,,,,,,,,,,,,,,,,,,,,,,,,,,,,,sub-004,46.8,45.6,47.8,COM3,2024-01-25_09h39.48.355,2024_RDpaindiscrimination_maintask,2023.2.3,59.99188909419783,2024-01-25 09h40.23.378370 -0500,
1,0,1,0,14,0,14,0,,,,,,,,,,,,,1186.8673846999882,,,,,,,,1186.8539296999807,1191.8513403999968,1191.8513517999963,1191.867466399999,1201.9344009999768,1201.8520836999814,2,active,46.8,1201.8520977000007,1203.7872665000032,0.9999999999999969,1.861,,,,,,,,,,,,,,,,,,,,,,,,,,,,,,,,,,,,,,sub-004,46.8,45.6,47.8,COM3,2024-01-25_09h39.48.355,2024_RDpaindiscrimination_maintask,2023.2.3,59.99188909419783,2024-01-25 09h40.23.378370 -0500,
1,0,1,0,15,0,15,0,,,,,,,,,,,,,1203.8011907000036,,,,,,,,1203.7878719999862,1208.7850607,1208.785072300001,1208.8012369999778,1218.868143300002,1218.785722599976,3,inactive,46.8,1218.785736699996,1221.6219011999783,57.49999999999994,2.762,,,,,,,,,,,,,,,,,,,,,,,,,,,,,,,,,,,,,,sub-004,46.8,45.6,47.8,COM3,2024-01-25_09h39.48.355,2024_RDpaindiscrimination_maintask,2023.2.3,59.99188909419783,2024-01-25 09h40.23.378370 -0500,
1,0,1,0,,,,,0,0,0,0,0,0,0,0,,,,,1233.7351582999981,,,,,,1229.186675999983,1233.7194809999783,,,,,,,0,inactive,46.8,1248.7198493999895,1251.221500899992,57.00000000000004,2.427,1221.622307499987,1221.6348751999903,1229.185991299979,1233.7201004999806,1238.7191041999904,1238.7191164999967,1238.7352745999815,1248.8021888999792,1248.7198365999793,,,,,,,,,,,,,,,,,,,,,,,,,,,,,sub-004,46.8,45.6,47.8,COM3,2024-01-25_09h39.48.355,2024_RDpaindiscrimination_maintask,2023.2.3,59.99188909419783,2024-01-25 09h40.23.378370 -0500,
1,0,1,0,,,,,0,0,0,0,1,0,1,0,,,,,1251.2522662999982,,,,,,,,,,,,,,1,active,46.8,1266.2359954999993,1269.1388088999956,18.500000000000178,2.828,,,,1251.2230887999758,1256.2357143999834,1256.2357256999821,1256.252496799978,,1266.235983999999,,,,,,,,,,,,,,,,,,,,,,,,,,,,,sub-004,46.8,45.6,47.8,COM3,2024-01-25_09h39.48.355,2024_RDpaindiscrimination_maintask,2023.2.3,59.99188909419783,2024-01-25 09h40.23.378370 -0500,
1,0,1,0,,,,,0,0,0,0,,,,,0,0,0,0,1271.4693830999895,,,,,,,,,,,,,,2,active,,,,,,,,,,,,,,,1269.1397730000026,1271.4536110000045,1271.4542785999947,1276.4533075999934,1276.4533204000036,1276.469580199977,1283.952989399986,1283.952989399986,1286.953084399982,1286.953084399982,1287.4197619000042,1287.4035845999897,3.93,4.12,393,412,7.5,1.2,0.75,pic-present,1,m,0.40849890001118183,None,,,,,sub-004,46.8,45.6,47.8,COM3,2024-01-25_09h39.48.355,2024_RDpaindiscrimination_maintask,2023.2.3,59.99188909419783,2024-01-25 09h40.23.378370 -0500,
1,0,1,0,,,,,0,0,0,0,,,,,1,0,1,0,1287.4197619000042,,,,,,,,,,,,,,3,active,,,,,,,,,,,,,,,,,1287.4053640999773,1292.4037057999813,1292.403718799993,1292.4198418000014,1299.9200351999898,1299.9200351999898,1302.9201235999935,1302.9201235999935,1303.3701374999946,1303.353970199998,3.37,4.68,337,468,7.5,1.2,0.75,pic-absent,0,n,1.4697109000117052,None,,,,,sub-004,46.8,45.6,47.8,COM3,2024-01-25_09h39.48.355,2024_RDpaindiscrimination_maintask,2023.2.3,59.99188909419783,2024-01-25 09h40.23.378370 -0500,
1,0,1,0,,,,,0,0,0,0,,,,,2,0,2,0,1303.3701374999946,,,,,,,,,,,,,,0,inactive,,,,,,,,,,,,,,,,,1303.3555623999855,1308.354074999981,1308.3540871999867,1308.3702361999894,1315.8704176000028,1315.8704176000028,1318.87048089999,1318.87048089999,1319.320515600004,1319.3043211999757,3.99,4.06,399,405,7.5,1.2,0.75,pic-present,1,m,0.5749937999935355,None,,,,,sub-004,46.8,45.6,47.8,COM3,2024-01-25_09h39.48.355,2024_RDpaindiscrimination_maintask,2023.2.3,59.99188909419783,2024-01-25 09h40.23.378370 -0500,
1,0,1,0,,,,,0,0,0,0,,,,,3,0,3,0,1319.320515600004,,,,,,,,,,,,,,1,active,,,,,,,,,,,,,,,,,1319.3059488,1324.3044746999803,1324.3044875999913,1324.3206346999796,1331.820770499995,1331.820770499995,1334.8208809999924,1334.8208809999924,1335.2708890999784,1335.2546928999946,4.15,3.9,415,390,7.5,1.2,0.75,pic-present,0,n,1.464172600011807,None,,,,,sub-004,46.8,45.6,47.8,COM3,2024-01-25_09h39.48.355,2024_RDpaindiscrimination_maintask,2023.2.3,59.99188909419783,2024-01-25 09h40.23.378370 -0500,
1,0,1,0,,,,,1,0,1,0,0,0,0,0,,,,,1339.4043244999775,,,,,,1335.2563474999915,1339.388631799986,,,,,,,2,active,46.8,1354.3889314999979,1359.4748293999874,11.000000000000071,5.011,,,,1339.3892591999902,1344.3882612999878,1344.3882735999941,1344.4044412999938,1354.471332599991,1354.3889202999999,,,,,,,,,,,,,,,,,,,,,,,,,,,,,sub-004,46.8,45.6,47.8,COM3,2024-01-25_09h39.48.355,2024_RDpaindiscrimination_maintask,2023.2.3,59.99188909419783,2024-01-25 09h40.23.378370 -0500,
1,0,1,0,,,,,1,0,1,0,1,0,1,0,,,,,1359.50491399999,,,,,,,,,,,,,,3,inactive,46.8,1374.488537999976,1377.5411502999777,42.5000000000001,2.979,,,,1359.4764876999834,1364.488318299991,1364.488329099986,1364.504921099986,,1374.4885257999995,,,,,,,,,,,,,,,,,,,,,,,,,,,,,sub-004,46.8,45.6,47.8,COM3,2024-01-25_09h39.48.355,2024_RDpaindiscrimination_maintask,2023.2.3,59.99188909419783,2024-01-25 09h40.23.378370 -0500,
1,0,1,0,,,,,1,0,1,0,,,,,0,0,0,0,1379.5219182999863,,,,,,,,,,,,,,0,inactive,,,,,,,,,,,,,,,1377.5414867999789,1379.50615619999,1379.506816899986,1384.5059230999905,1384.5059353999968,1384.5220413999923,1392.0055666999833,1392.0055666999833,1395.0056021999917,1395.0056021999917,1395.4723188999924,1395.4561764999817,3.46,4.59,346,459,7.5,1.2,0.75,pic-absent,0,n,0.37992470001336187,None,,,,,sub-004,46.8,45.6,47.8,COM3,2024-01-25_09h39.48.355,2024_RDpaindiscrimination_maintask,2023.2.3,59.99188909419783,2024-01-25 09h40.23.378370 -0500,
1,0,1,0,,,,,1,0,1,0,,,,,1,0,1,0,1395.4723188999924,,,,,,,,,,,,,,1,inactive,,,,,,,,,,,,,,,,,1395.4579554999946,1400.4560334999987,1400.456046199979,1400.472418999998,1407.9725910999987,1407.9725910999987,1410.9726815999893,1410.9726815999893,1411.4226767999935,1411.4065218000032,3.93,4.12,393,412,7.5,1.2,0.75,pic-absent,1,m,0.35673870000755414,None,,,,,sub-004,46.8,45.6,47.8,COM3,2024-01-25_09h39.48.355,2024_RDpaindiscrimination_maintask,2023.2.3,59.99188909419783,2024-01-25 09h40.23.378370 -0500,
1,0,1,0,,,,,1,0,1,0,,,,,2,0,2,0,1411.4226767999935,,,,,,,,,,,,,,2,active,,,,,,,,,,,,,,,,,1411.4081191000005,1416.4066160999937,1416.4066290000046,1416.4229266000038,1423.9229729999788,1423.9229729999788,1426.9230654999847,1426.9230654999847,1427.373052799987,1427.3569216000033,3.5,4.55,350,455,7.5,1.2,0.75,pic-present,1,m,0.3545528000104241,None,,,,,sub-004,46.8,45.6,47.8,COM3,2024-01-25_09h39.48.355,2024_RDpaindiscrimination_maintask,2023.2.3,59.99188909419783,2024-01-25 09h40.23.378370 -0500,
1,0,1,0,,,,,1,0,1,0,,,,,3,0,3,0,1427.373052799987,,,,,,,,,,,,,,3,active,,,,,,,,,,,,,,,,,1427.358512899984,1432.357000899996,1432.3570135000045,1432.3731923000014,1439.873383500002,1439.873383500002,1442.8734359999944,1442.8734359999944,1443.323463299981,1443.3073751999764,3.33,4.72,333,472,7.5,1.2,0.75,pic-absent,0,n,0.9162039999791887,None,,,,,sub-004,46.8,45.6,47.8,COM3,2024-01-25_09h39.48.355,2024_RDpaindiscrimination_maintask,2023.2.3,59.99188909419783,2024-01-25 09h40.23.378370 -0500,
1,0,1,0,,,,,2,0,2,0,0,0,0,0,,,,,1445.9568471999955,,,,,,1443.309005899995,1445.9412386999757,,,,,,,0,inactive,46.8,1460.9424557999882,1463.159870100004,59.999999999999936,2.136,,,,1445.9418615000031,1450.940875100001,1450.940887099976,1450.9569677999825,1461.0405397999857,1460.9424246999843,,,,,,,,,,,,,,,,,,,,,,,,,,,,,sub-004,46.8,45.6,47.8,COM3,2024-01-25_09h39.48.355,2024_RDpaindiscrimination_maintask,2023.2.3,59.99188909419783,2024-01-25 09h40.23.378370 -0500,
1,0,1,0,,,,,2,0,2,0,1,0,1,0,,,,,1463.173981400003,,,,,,,,,,,,,,1,active,46.8,1478.1586396999774,1481.6431372999796,28.000000000000185,3.411,,,,1463.1608766999852,1468.1578953999851,1468.1579077999922,1468.1740258999926,1478.2409496000037,1478.158627900004,,,,,,,,,,,,,,,,,,,,,,,,,,,,,sub-004,46.8,45.6,47.8,COM3,2024-01-25_09h39.48.355,2024_RDpaindiscrimination_maintask,2023.2.3,59.99188909419783,2024-01-25 09h40.23.378370 -0500,
1,0,1,0,,,,,2,0,2,0,,,,,0,0,0,0,1483.6910566999868,,,,,,,,,,,,,,2,inactive,,,,,,,,,,,,,,,1481.6435043999809,1483.6752895999816,1483.675940999994,1488.6750045999943,1488.6750171000022,1488.691173899977,1496.1746986999933,1496.1746986999933,1499.1747527999978,1499.1747527999978,1499.6414528999885,1499.6252639000013,4.12,3.93,412,393,7.5,1.2,0.75,pic-present,0,n,1.4865196000027936,None,,,,,sub-004,46.8,45.6,47.8,COM3,2024-01-25_09h39.48.355,2024_RDpaindiscrimination_maintask,2023.2.3,59.99188909419783,2024-01-25 09h40.23.378370 -0500,
1,0,1,0,,,,,2,0,2,0,,,,,1,0,1,0,1499.6414528999885,,,,,,,,,,,,,,3,inactive,,,,,,,,,,,,,,,,,1499.6270248999936,1504.6255089999759,1504.6255223999906,1504.6415726999985,1512.1417151999776,1512.1417151999776,1515.1417760999757,1515.1417760999757,1515.5918096999812,1515.575615299982,4.21,3.84,421,384,7.5,1.2,0.75,pic-present,1,m,0.43106170001556166,None,,,,,sub-004,46.8,45.6,47.8,COM3,2024-01-25_09h39.48.355,2024_RDpaindiscrimination_maintask,2023.2.3,59.99188909419783,2024-01-25 09h40.23.378370 -0500,
1,0,1,0,,,,,2,0,2,0,,,,,2,0,2,0,1515.5918096999812,,,,,,,,,,,,,,0,active,,,,,,,,,,,,,,,,,1515.577211099997,1520.5757711999759,1520.5757836999837,1520.5919279999798,1528.0921248999948,1528.0921248999948,1531.0921759999765,1531.0921759999765,1531.5422011000046,1531.5260203999933,3.68,4.37,368,437,7.5,1.2,0.75,pic-absent,0,n,0.4765446000092197,None,,,,,sub-004,46.8,45.6,47.8,COM3,2024-01-25_09h39.48.355,2024_RDpaindiscrimination_maintask,2023.2.3,59.99188909419783,2024-01-25 09h40.23.378370 -0500,
1,0,1,0,,,,,2,0,2,0,,,,,3,0,3,0,1531.5422011000046,,,,,,,,,,,,,,1,inactive,,,,,,,,,,,,,,,,,1531.5276226999995,1536.5261610999878,1536.5261740999995,1536.5423074999999,1544.0424633999937,1544.0424633999937,1547.042555299995,1547.042555299995,1547.4925868999853,1547.4763977999974,3.38,4.67,338,467,7.5,1.2,0.75,pic-present,0,n,1.0343275000050198,None,,,,,sub-004,46.8,45.6,47.8,COM3,2024-01-25_09h39.48.355,2024_RDpaindiscrimination_maintask,2023.2.3,59.99188909419783,2024-01-25 09h40.23.378370 -0500,
1,0,1,0,,,,,3,0,3,0,0,0,0,0,,,,,1549.7093133000017,,,,,,1547.478028099984,1549.6938479999953,,,,,,,2,active,46.8,1564.6951253000007,1567.1956122999836,20.5,2.409,,,,1549.6944877999777,1554.6932683999767,1554.6932804999815,1554.7094077999936,1564.809647099988,1564.695094499999,,,,,,,,,,,,,,,,,,,,,,,,,,,,,sub-004,46.8,45.6,47.8,COM3,2024-01-25_09h39.48.355,2024_RDpaindiscrimination_maintask,2023.2.3,59.99188909419783,2024-01-25 09h40.23.378370 -0500,
1,0,1,0,,,,,3,0,3,0,1,0,1,0,,,,,1567.2097374000004,,,,,,,,,,,,,,3,inactive,46.8,1582.1944128999894,1585.028717899986,49.499999999999964,2.76,,,,1567.1962472999876,1572.1936525999918,1572.1936647999974,1572.2098368000006,1582.2767471999978,1582.1944013999891,,,,,,,,,,,,,,,,,,,,,,,,,,,,,sub-004,46.8,45.6,47.8,COM3,2024-01-25_09h39.48.355,2024_RDpaindiscrimination_maintask,2023.2.3,59.99188909419783,2024-01-25 09h40.23.378370 -0500,
1,0,1,0,,,,,3,0,3,0,,,,,0,0,0,0,1586.943498699984,,,,,,,,,,,,,,0,active,,,,,,,,,,,,,,,1585.029090600001,1586.9278592999908,1586.9285022999975,1591.9274567999819,1591.927469599992,1591.9436175999872,1599.4271488999948,1599.4271488999948,1602.427199800004,1602.427199800004,1602.8938954999903,1602.877722699981,3.57,4.48,357,448,7.5,1.2,0.75,pic-absent,0,n,0.3458149000070989,None,,,,,sub-004,46.8,45.6,47.8,COM3,2024-01-25_09h39.48.355,2024_RDpaindiscrimination_maintask,2023.2.3,59.99188909419783,2024-01-25 09h40.23.378370 -0500,
1,0,1,0,,,,,3,0,3,0,,,,,1,0,1,0,1602.8938954999903,,,,,,,,,,,,,,1,active,,,,,,,,,,,,,,,,,1602.8794840999763,1607.8778379999858,1607.8778509999975,1607.8940063999908,1615.3941900999926,1615.3941900999926,1618.394246699987,1618.394246699987,1618.8442565999867,1618.8281184999796,3.99,4.06,399,405,7.5,1.2,0.75,pic-present,1,m,2.2547670000058133,None,,,,,sub-004,46.8,45.6,47.8,COM3,2024-01-25_09h39.48.355,2024_RDpaindiscrimination_maintask,2023.2.3,59.99188909419783,2024-01-25 09h40.23.378370 -0500,
1,0,1,0,,,,,3,0,3,0,,,,,2,0,2,0,1618.8442565999867,,,,,,,,,,,,,,2,inactive,,,,,,,,,,,,,,,,,1618.8297026999935,1623.8282883999927,1623.8283013000037,1623.8443752999883,1631.344571099995,1631.344571099995,1634.3446224999789,1634.3446224999789,1634.794662899978,1634.7784664999926,4.12,3.93,412,393,7.5,1.2,0.75,pic-absent,0,n,0.3689983999938704,None,,,,,sub-004,46.8,45.6,47.8,COM3,2024-01-25_09h39.48.355,2024_RDpaindiscrimination_maintask,2023.2.3,59.99188909419783,2024-01-25 09h40.23.378370 -0500,
1,0,1,0,,,,,3,0,3,0,,,,,3,0,3,0,1634.794662899978,,,,,,,,,,,,,,3,inactive,,,,,,,,,,,,,,,,,1634.7800796999945,1639.7786103999824,1639.778622599988,1639.794732999988,1647.2949403999955,1647.2949403999955,1650.2950026000035,1650.2950026000035,1650.7450161000015,1650.7288742999954,4.03,4.02,403,401,7.5,1.2,0.75,pic-absent,0,n,0.7900765000085812,None,,,,,sub-004,46.8,45.6,47.8,COM3,2024-01-25_09h39.48.355,2024_RDpaindiscrimination_maintask,2023.2.3,59.99188909419783,2024-01-25 09h40.23.378370 -0500,
,,,,,,,,,,,,,,,,,,,,,,,,,,,,,,,,,,,,,,,,,,,,,,,,,,,,,,,,,,,,,,,,,,,,,,,,,,1650.7303345999971,1657.3794320999878,1657.3794651999779,1667.379307299998,,,,,,,,,,,
