trials.thisRepN,trials.thisTrialN,trials.thisN,trials.thisIndex,loop_test.thisRepN,loop_test.thisTrialN,loop_test.thisN,loop_test.thisIndex,loop_eval_discri.thisRepN,loop_eval_discri.thisTrialN,loop_eval_discri.thisN,loop_eval_discri.thisIndex,loop_eval.thisRepN,loop_eval.thisTrialN,loop_eval.thisN,loop_eval.thisIndex,loop_discri.thisRepN,loop_discri.thisTrialN,loop_discri.thisN,loop_discri.thisIndex,thisRow.t,notes,Set_up.started,Set_up.stopped,electrode_check.started,electrode_check.stopped,instructions_eval.started,instructions_eval.stopped,pause_5_test.started,pause_5_test.stopped,Phase_Test.started,thermode_locali.started,thermode_locali.stopped,Phase_Test.stopped,loca_thermode,condition,temp_trial_sent,eval_douleur.started,eval_douleur.stopped,ratingScale.response,ratingScale.rt,Fin_test.started,text.started,Fin_test.stopped,pause_5_EVA.started,pause_5_EVA.stopped,tâche_EVA.started,thermode_locali_EVA.started,thermode_locali_EVA.stopped,tâche_EVA.stopped,instructions_discrim.started,instructions_discrim.stopped,pause_5_pic.started,pause_5_pic.stopped,tâche_PIC.started,thermode_locali_pic.started,percu_or.started,responser.started,thermode_locali_pic.stopped,percu_or.stopped,responser.stopped,tâche_PIC.stopped,dur_plateau1,dur_plateau2,dur_plateau1_sent,dur_plateau2_sent,start_plateau_2_resp,dur_pic,dur_rise,pic_presence,pic_response,discrimin_resp.keys,discrimin_resp.rt,discrimin_resp.duration,break_entre_bloc.started,break_entre_bloc.stopped,merci.started,merci.stopped,participant,temp_flat,temp_active,temp_pic_set,com_thermode,date,expName,psychopyVersion,frameRate,expStart,
0,0,0,0,0,0,0,0,,,,,,,,,,,,,135.7005732001271,,0.01588590000756085,9.166251400019974,9.166608000174165,121.40077399997972,121.40078370017,135.68427800014615,135.68459510011598,140.6842698000837,140.6842781000305,140.700717800064,152.71738050016575,152.68463370017707,0,active,43.4,152.68484670016915,157.78705370007083,0.0,5.079,,,,,,,,,,,,,,,,,,,,,,,,,,,,,,,,,,,,,,sub-030,45,43.4,45.9,COM3,2024-02-22_11h19.38.498,2024_RDpaindiscrimination_maintask,2023.2.3,60.000456034877985,2024-02-22 11h20.00.053614 -0500,
0,0,0,0,1,0,1,0,,,,,,,,,,,,,157.80088620004244,,,,,,,,157.7879552000668,162.7844295001123,162.7844363001641,162.80089029995725,174.81772310007364,174.78496910003014,1,inactive,45.0,174.78511489997618,179.33761010016315,29.500000000000142,4.533,,,,,,,,,,,,,,,,,,,,,,,,,,,,,,,,,,,,,,sub-030,45,43.4,45.9,COM3,2024-02-22_11h19.38.498,2024_RDpaindiscrimination_maintask,2023.2.3,60.000456034877985,2024-02-22 11h20.00.053614 -0500,
0,0,0,0,2,0,2,0,,,,,,,,,,,,,179.35115210013464,,,,,,,,179.3383724000305,184.33464980009012,184.3346566001419,184.3511354001239,196.36794460006058,196.33507090015337,2,active,43.4,196.33521920000203,200.93732969998382,16.000000000000103,4.583,,,,,,,,,,,,,,,,,,,,,,,,,,,,,,,,,,,,,,sub-030,45,43.4,45.9,COM3,2024-02-22_11h19.38.498,2024_RDpaindiscrimination_maintask,2023.2.3,60.000456034877985,2024-02-22 11h20.00.053614 -0500,
0,0,0,0,3,0,3,0,,,,,,,,,,,,,200.95129370014183,,,,,,,,200.93810410005972,205.93483300018124,205.93483939999714,205.95133890002035,217.96808400005102,217.93531810003333,3,active,43.4,217.93546910001896,222.60375889996067,50.50000000000007,4.649,,,,,,,,,,,,,,,,,,,,,,,,,,,,,,,,,,,,,,sub-030,45,43.4,45.9,COM3,2024-02-22_11h19.38.498,2024_RDpaindiscrimination_maintask,2023.2.3,60.000456034877985,2024-02-22 11h20.00.053614 -0500,
0,0,0,0,4,0,4,0,,,,,,,,,,,,,222.61822229996324,,,,,,,,222.6045293000061,227.60174249997362,227.6017486001365,227.61827130010352,239.63508270005696,239.60223349998705,0,inactive,45.0,239.60238609998487,244.12135799997486,59.49999999999994,4.499,,,,,,,,,,,,,,,,,,,,,,,,,,,,,,,,,,,,,,sub-030,45,43.4,45.9,COM3,2024-02-22_11h19.38.498,2024_RDpaindiscrimination_maintask,2023.2.3,60.000456034877985,2024-02-22 11h20.00.053614 -0500,
0,0,0,0,5,0,5,0,,,,,,,,,,,,,244.1350901001133,,,,,,,,244.12221210007556,249.11862329998985,249.11863030004315,249.13511170004494,261.15195109997876,261.11900539998896,1,active,43.4,261.1191510001663,266.02082090009935,23.000000000000203,4.883,,,,,,,,,,,,,,,,,,,,,,,,,,,,,,,,,,,,,,sub-030,45,43.4,45.9,COM3,2024-02-22_11h19.38.498,2024_RDpaindiscrimination_maintask,2023.2.3,60.000456034877985,2024-02-22 11h20.00.053614 -0500,
0,0,0,0,6,0,6,0,,,,,,,,,,,,,266.0352740001399,,,,,,,,266.0216564000584,271.0188400000334,271.0188462000806,271.03539730003104,283.0521414000541,283.01928610005416,2,inactive,45.0,283.01942820008844,285.8381634999532,52.50000000000003,2.8,,,,,,,,,,,,,,,,,,,,,,,,,,,,,,,,,,,,,,sub-030,45,43.4,45.9,COM3,2024-02-22_11h19.38.498,2024_RDpaindiscrimination_maintask,2023.2.3,60.000456034877985,2024-02-22 11h20.00.053614 -0500,
0,0,0,0,7,0,7,0,,,,,,,,,,,,,285.85219060000964,,,,,,,,285.8389604999684,290.83571440004744,290.83572129998356,290.85220950003713,302.86903830012307,302.8361490999814,3,active,43.4,302.8362954000477,305.2709212000482,20.0,2.416,,,,,,,,,,,,,,,,,,,,,,,,,,,,,,,,,,,,,,sub-030,45,43.4,45.9,COM3,2024-02-22_11h19.38.498,2024_RDpaindiscrimination_maintask,2023.2.3,60.000456034877985,2024-02-22 11h20.00.053614 -0500,
0,0,0,0,8,0,8,0,,,,,,,,,,,,,305.2857113000937,,,,,,,,305.27173939999193,310.26928170002066,310.26928819995373,310.2857840000652,322.30252859997563,322.26972179999575,0,active,43.4,322.26986310002394,326.5209804000333,19.500000000000178,4.232,,,,,,,,,,,,,,,,,,,,,,,,,,,,,,,,,,,,,,sub-030,45,43.4,45.9,COM3,2024-02-22_11h19.38.498,2024_RDpaindiscrimination_maintask,2023.2.3,60.000456034877985,2024-02-22 11h20.00.053614 -0500,
0,0,0,0,9,0,9,0,,,,,,,,,,,,,326.5359843999613,,,,,,,,326.52179030003026,331.5194221001584,331.5194290999789,331.53592219995335,343.5527473001275,343.51992360013537,1,inactive,45.0,343.52006880007684,348.6048606999684,24.00000000000002,5.066,,,,,,,,,,,,,,,,,,,,,,,,,,,,,,,,,,,,,,sub-030,45,43.4,45.9,COM3,2024-02-22_11h19.38.498,2024_RDpaindiscrimination_maintask,2023.2.3,60.000456034877985,2024-02-22 11h20.00.053614 -0500,
0,0,0,0,10,0,10,0,,,,,,,,,,,,,348.6194468999747,,,,,,,,348.60563650005497,353.6029932999518,353.602999499999,353.6195052000694,365.63638030015863,365.6035798001103,2,active,43.4,365.60372560005635,370.20651339995675,9.499999999999991,4.584,,,,,,,,,,,,,,,,,,,,,,,,,,,,,,,,,,,,,,sub-030,45,43.4,45.9,COM3,2024-02-22_11h19.38.498,2024_RDpaindiscrimination_maintask,2023.2.3,60.000456034877985,2024-02-22 11h20.00.053614 -0500,
0,0,0,0,11,0,11,0,,,,,,,,,,,,,370.21965080010705,,,,,,,,370.20736280013807,375.2031633001752,375.2031702999957,375.21966970013455,387.23645950015634,387.2035581001546,3,inactive,45.0,387.2036984001752,391.17149169999175,67.49999999999991,3.948,,,,,,,,,,,,,,,,,,,,,,,,,,,,,,,,,,,,,,sub-030,45,43.4,45.9,COM3,2024-02-22_11h19.38.498,2024_RDpaindiscrimination_maintask,2023.2.3,60.000456034877985,2024-02-22 11h20.00.053614 -0500,
0,0,0,0,12,0,12,0,,,,,,,,,,,,,391.18662000005133,,,,,,,,391.17227330012247,396.1700753001496,396.17008269997314,396.1866045000497,408.20343250012957,408.17050470015965,0,inactive,45.0,408.17064719996415,411.4564771000296,54.499999999999986,3.267,,,,,,,,,,,,,,,,,,,,,,,,,,,,,,,,,,,,,,sub-030,45,43.4,45.9,COM3,2024-02-22_11h19.38.498,2024_RDpaindiscrimination_maintask,2023.2.3,60.000456034877985,2024-02-22 11h20.00.053614 -0500,
0,0,0,0,13,0,13,0,,,,,,,,,,,,,411.4701215000823,,,,,,,,411.45729320007376,416.4536660001613,416.45367290009744,416.4701617001556,428.48698800010607,428.45420020003803,1,active,43.4,428.4543519001454,432.70529770012945,0.0,4.232,,,,,,,,,,,,,,,,,,,,,,,,,,,,,,,,,,,,,,sub-030,45,43.4,45.9,COM3,2024-02-22_11h19.38.498,2024_RDpaindiscrimination_maintask,2023.2.3,60.000456034877985,2024-02-22 11h20.00.053614 -0500,
0,0,0,0,14,0,14,0,,,,,,,,,,,,,432.7203469001688,,,,,,,,432.70610930002294,437.70389969996177,437.70390600012615,437.7203822999727,449.7371339001693,449.70429510017857,2,inactive,45.0,449.70443530008197,453.7054717000574,46.499999999999986,3.982,,,,,,,,,,,,,,,,,,,,,,,,,,,,,,,,,,,,,,sub-030,45,43.4,45.9,COM3,2024-02-22_11h19.38.498,2024_RDpaindiscrimination_maintask,2023.2.3,60.000456034877985,2024-02-22 11h20.00.053614 -0500,
0,0,0,0,15,0,15,0,,,,,,,,,,,,,453.7204982000403,,,,,,,,453.70629710005596,458.70411469996907,458.70412180013955,458.7206425999757,470.7373538999818,470.7047425999772,3,inactive,45.0,470.70489150006324,474.02214380004443,62.000000000000064,3.298,,,,,,,,,,,,,,,,,,,,,,,,,,,,,,,,,,,,,,sub-030,45,43.4,45.9,COM3,2024-02-22_11h19.38.498,2024_RDpaindiscrimination_maintask,2023.2.3,60.000456034877985,2024-02-22 11h20.00.053614 -0500,
0,0,0,0,,,,,0,0,0,0,0,0,0,0,,,,,521.1546205000486,,,,,,518.7052152000833,521.1382289000321,,,,,,,0,inactive,45.0,538.1385990001727,542.6739018000662,52.500000000000064,4.517,474.0227380001452,474.03743549995124,518.7048790000845,521.1385161001235,526.1381523001473,526.1381592999678,526.1546557999682,538.1714493001346,538.1385908001103,,,,,,,,,,,,,,,,,,,,,,,,,,,,,sub-030,45,43.4,45.9,COM3,2024-02-22_11h19.38.498,2024_RDpaindiscrimination_maintask,2023.2.3,60.000456034877985,2024-02-22 11h20.00.053614 -0500,
0,0,0,0,,,,,0,0,0,0,1,0,1,0,,,,,542.6881687999703,,,,,,,,,,,,,,1,active,45.0,559.6719319999684,563.124631700106,16.500000000000068,3.434,,,,542.6746577001177,547.6716175000183,547.6716237999499,547.6881655000616,559.7049626000226,559.6719240001403,,,,,,,,,,,,,,,,,,,,,,,,,,,,,sub-030,45,43.4,45.9,COM3,2024-02-22_11h19.38.498,2024_RDpaindiscrimination_maintask,2023.2.3,60.000456034877985,2024-02-22 11h20.00.053614 -0500,
0,0,0,0,,,,,0,0,0,0,,,,,0,0,0,0,566.4550046001095,,,,,,,,,,,,,,2,inactive,,,,,,,,,,,,,,,563.1251368999947,566.4386687001679,566.438974800054,571.4385629000608,571.4385703001171,571.455033400096,579.4385669999756,579.4385669999756,582.4052846000995,582.4385983999819,582.4385983999819,582.4221126001794,4.17,4.63,417,463,8,1.2,0.75,pic-absent,0,n,1.3003118999768049,None,,,,,sub-030,45,43.4,45.9,COM3,2024-02-22_11h19.38.498,2024_RDpaindiscrimination_maintask,2023.2.3,60.000456034877985,2024-02-22 11h20.00.053614 -0500,
0,0,0,0,,,,,0,0,0,0,,,,,1,0,1,0,582.4385983999819,,,,,,,,,,,,,,3,inactive,,,,,,,,,,,,,,,,,582.4227269999683,587.4221417000517,587.4221491001081,587.4386128000915,595.4219969001133,595.4219969001133,598.3886856001336,598.4220656000543,598.4220656000543,598.405535500031,4.3,4.5,430,450,8,1.2,0.75,pic-present,0,n,1.405096200061962,None,,,,,sub-030,45,43.4,45.9,COM3,2024-02-22_11h19.38.498,2024_RDpaindiscrimination_maintask,2023.2.3,60.000456034877985,2024-02-22 11h20.00.053614 -0500,
0,0,0,0,,,,,0,0,0,0,,,,,2,0,2,0,598.4220656000543,,,,,,,,,,,,,,0,active,,,,,,,,,,,,,,,,,598.4060448000673,603.4055672001559,603.4055745999794,603.4220724001061,611.4055004999973,611.4055004999973,614.3722308999859,614.4055248000659,614.4055248000659,614.3890282001812,3.68,5.12,368,512,8,1.2,0.75,pic-absent,0,n,1.601484099868685,None,,,,,sub-030,45,43.4,45.9,COM3,2024-02-22_11h19.38.498,2024_RDpaindiscrimination_maintask,2023.2.3,60.000456034877985,2024-02-22 11h20.00.053614 -0500,
0,0,0,0,,,,,0,0,0,0,,,,,3,0,3,0,614.4055248000659,,,,,,,,,,,,,,1,active,,,,,,,,,,,,,,,,,614.3894811000209,619.3890678000171,619.3890750999562,619.4055894999765,627.388990300009,627.388990300009,630.3556878000963,630.3890144000761,630.3890144000761,630.3725851001218,3.57,5.23,357,523,8,1.2,0.75,pic-absent,0,n,1.8932973998598754,None,,,,,sub-030,45,43.4,45.9,COM3,2024-02-22_11h19.38.498,2024_RDpaindiscrimination_maintask,2023.2.3,60.000456034877985,2024-02-22 11h20.00.053614 -0500,
0,0,0,0,,,,,1,0,1,0,0,0,0,0,,,,,633.8224237000104,,,,,,630.3730679999571,633.8060332001187,,,,,,,2,active,45.0,650.8065892001614,654.2081657999661,11.000000000000064,3.383,,,,633.8063320000656,638.8059809000697,638.8059880000073,638.8224414000288,650.839226400014,650.8065804999787,,,,,,,,,,,,,,,,,,,,,,,,,,,,,sub-030,45,43.4,45.9,COM3,2024-02-22_11h19.38.498,2024_RDpaindiscrimination_maintask,2023.2.3,60.000456034877985,2024-02-22 11h20.00.053614 -0500,
0,0,0,0,,,,,1,0,1,0,1,0,1,0,,,,,654.2226490001194,,,,,,,,,,,,,,3,inactive,45.0,671.2066057999618,674.3082351000048,47.000000000000014,3.082,,,,654.2089563000482,659.2062144000083,659.2062214000616,659.2226482999977,671.2394900999498,671.2065977000166,,,,,,,,,,,,,,,,,,,,,,,,,,,,,sub-030,45,43.4,45.9,COM3,2024-02-22_11h19.38.498,2024_RDpaindiscrimination_maintask,2023.2.3,60.000456034877985,2024-02-22 11h20.00.053614 -0500,
0,0,0,0,,,,,1,0,1,0,,,,,0,0,0,0,676.7895447001792,,,,,,,,,,,,,,0,inactive,,,,,,,,,,,,,,,674.3087480000686,676.7731457001064,676.7734839001205,681.7731044001412,681.7731117999647,681.789602200035,689.7730344999582,689.7730344999582,692.7397247999907,692.773054700112,692.773054700112,692.7565773001406,4.42,4.38,442,438,8,1.2,0.75,pic-present,1,m,0.9381947000510991,None,,,,,sub-030,45,43.4,45.9,COM3,2024-02-22_11h19.38.498,2024_RDpaindiscrimination_maintask,2023.2.3,60.000456034877985,2024-02-22 11h20.00.053614 -0500,
0,0,0,0,,,,,1,0,1,0,,,,,1,0,1,0,692.773054700112,,,,,,,,,,,,,,1,active,,,,,,,,,,,,,,,,,692.757146500051,697.7565989000723,697.7566069001332,697.7731016001198,705.7565287000034,705.7565287000034,708.7231417000294,708.7564732001629,708.7564732001629,708.7399712000042,3.36,5.44,336,544,8,1.2,0.75,pic-absent,0,n,1.2742023000027984,None,,,,,sub-030,45,43.4,45.9,COM3,2024-02-22_11h19.38.498,2024_RDpaindiscrimination_maintask,2023.2.3,60.000456034877985,2024-02-22 11h20.00.053614 -0500,
0,0,0,0,,,,,1,0,1,0,,,,,2,0,2,0,708.7564732001629,,,,,,,,,,,,,,2,inactive,,,,,,,,,,,,,,,,,708.7404475000221,713.7401054000948,713.7401134001557,713.7565461001359,721.7399626001716,721.7399626001716,724.7067674000282,724.7400869999547,724.7400869999547,724.7236834000796,4.11,4.69,411,469,8,1.2,0.75,pic-present,1,m,0.9541253999341279,None,,,,,sub-030,45,43.4,45.9,COM3,2024-02-22_11h19.38.498,2024_RDpaindiscrimination_maintask,2023.2.3,60.000456034877985,2024-02-22 11h20.00.053614 -0500,
0,0,0,0,,,,,1,0,1,0,,,,,3,0,3,0,724.7400869999547,,,,,,,,,,,,,,3,active,,,,,,,,,,,,,,,,,724.7241692000534,729.7236190000549,729.7236262999941,729.740103600081,737.7235227001365,737.7235227001365,740.6902366001159,740.723557600053,740.723557600053,740.7071967001539,3.81,4.99,381,499,8,1.2,0.75,pic-present,1,m,1.1517193000763655,None,,,,,sub-030,45,43.4,45.9,COM3,2024-02-22_11h19.38.498,2024_RDpaindiscrimination_maintask,2023.2.3,60.000456034877985,2024-02-22 11h20.00.053614 -0500,
0,0,0,0,,,,,2,0,2,0,0,0,0,0,,,,,743.1402056000661,,,,,,740.707677599974,743.1238562001381,,,,,,,0,active,45.0,760.1241375999525,764.6252693000715,7.0000000000000595,4.482,,,,743.124182100175,748.1237973000389,748.1238049999811,748.1402996999677,760.157146200072,760.1241294001229,,,,,,,,,,,,,,,,,,,,,,,,,,,,,sub-030,45,43.4,45.9,COM3,2024-02-22_11h19.38.498,2024_RDpaindiscrimination_maintask,2023.2.3,60.000456034877985,2024-02-22 11h20.00.053614 -0500,
0,0,0,0,,,,,2,0,2,0,1,0,1,0,,,,,764.6405454000924,,,,,,,,,,,,,,1,inactive,45.0,781.6246998000424,785.376015700167,23.500000000000057,3.733,,,,764.6258505999576,769.6241731001064,769.6241838000715,769.6405285000801,781.6573585001752,781.6246921999846,,,,,,,,,,,,,,,,,,,,,,,,,,,,,sub-030,45,43.4,45.9,COM3,2024-02-22_11h19.38.498,2024_RDpaindiscrimination_maintask,2023.2.3,60.000456034877985,2024-02-22 11h20.00.053614 -0500,
0,0,0,0,,,,,2,0,2,0,,,,,0,0,0,0,791.5907990001142,,,,,,,,,,,,,,2,active,,,,,,,,,,,,,,,785.3765829000622,791.5744292000309,791.5747567999642,796.5743452999741,796.5743526001461,796.5908447999973,804.5742566001136,804.5742566001136,807.5409578001127,807.5742915000301,807.5742915000301,807.5578082001302,3.82,4.98,382,498,8,1.2,0.75,pic-absent,0,n,1.7653719999361783,None,,,,,sub-030,45,43.4,45.9,COM3,2024-02-22_11h19.38.498,2024_RDpaindiscrimination_maintask,2023.2.3,60.000456034877985,2024-02-22 11h20.00.053614 -0500,
0,0,0,0,,,,,2,0,2,0,,,,,1,0,1,0,807.5742915000301,,,,,,,,,,,,,,3,inactive,,,,,,,,,,,,,,,,,807.5583703999873,812.5578362001106,812.5578437000513,812.5743374000303,820.5577450001147,820.5577450001147,823.5245087000076,823.5577883000951,823.5577883000951,823.5412675000262,3.99,4.81,399,480,8,1.2,0.75,pic-absent,0,n,1.3494141998235136,None,,,,,sub-030,45,43.4,45.9,COM3,2024-02-22_11h19.38.498,2024_RDpaindiscrimination_maintask,2023.2.3,60.000456034877985,2024-02-22 11h20.00.053614 -0500,
0,0,0,0,,,,,2,0,2,0,,,,,2,0,2,0,823.5577883000951,,,,,,,,,,,,,,0,active,,,,,,,,,,,,,,,,,823.541727400152,828.541385400109,828.5413921000436,828.5578159000725,836.5412726001814,836.5412726001814,839.5078054000624,839.5412355000153,839.5412355000153,839.5246529001743,4.54,4.26,454,426,8,1.2,0.75,pic-present,1,m,0.9807453998364508,None,,,,,sub-030,45,43.4,45.9,COM3,2024-02-22_11h19.38.498,2024_RDpaindiscrimination_maintask,2023.2.3,60.000456034877985,2024-02-22 11h20.00.053614 -0500,
0,0,0,0,,,,,2,0,2,0,,,,,3,0,3,0,839.5412355000153,,,,,,,,,,,,,,1,inactive,,,,,,,,,,,,,,,,,839.5251776999794,844.5246866000816,844.5246938001364,844.5411898000166,852.5246152000036,852.5246152000036,855.4914004001766,855.5246417999733,855.5246417999733,855.5081555000506,4.53,4.27,453,426,8,1.2,0.75,pic-absent,0,n,1.1339048999361694,None,,,,,sub-030,45,43.4,45.9,COM3,2024-02-22_11h19.38.498,2024_RDpaindiscrimination_maintask,2023.2.3,60.000456034877985,2024-02-22 11h20.00.053614 -0500,
0,0,0,0,,,,,3,0,3,0,0,0,0,0,,,,,860.758032400161,,,,,,855.508654500125,860.7416392001323,,,,,,,2,inactive,45.0,877.7417415000964,881.7437813000288,27.500000000000078,3.983,,,,860.7419543999713,865.7415853999555,865.7415922000073,865.758075900143,,877.741732600145,,,,,,,,,,,,,,,,,,,,,,,,,,,,,sub-030,45,43.4,45.9,COM3,2024-02-22_11h19.38.498,2024_RDpaindiscrimination_maintask,2023.2.3,60.000456034877985,2024-02-22 11h20.00.053614 -0500,
0,0,0,0,,,,,3,0,3,0,1,0,1,0,,,,,881.7583639000077,,,,,,,,,,,,,,3,active,45.0,898.7425158000551,902.6779330000281,41.0000000000001,3.917,,,,881.7445606000256,886.7417931000236,886.741800100077,886.7583085000515,898.77521230001,898.7425077999942,,,,,,,,,,,,,,,,,,,,,,,,,,,,,sub-030,45,43.4,45.9,COM3,2024-02-22_11h19.38.498,2024_RDpaindiscrimination_maintask,2023.2.3,60.000456034877985,2024-02-22 11h20.00.053614 -0500,
0,0,0,0,,,,,3,0,3,0,,,,,0,0,0,0,905.3253407999873,,,,,,,,,,,,,,0,active,,,,,,,,,,,,,,,902.6784810000099,905.3090109999757,905.309336700011,910.3087973999791,910.3088040000293,910.325282700127,918.3087117001414,918.3087117001414,921.2754023000598,921.308732500067,921.308732500067,921.2922650000546,4.57,4.23,457,423,8,1.2,0.75,pic-present,1,m,0.9017156001646072,None,,,,,sub-030,45,43.4,45.9,COM3,2024-02-22_11h19.38.498,2024_RDpaindiscrimination_maintask,2023.2.3,60.000456034877985,2024-02-22 11h20.00.053614 -0500,
0,0,0,0,,,,,3,0,3,0,,,,,1,0,1,0,921.308732500067,,,,,,,,,,,,,,1,active,,,,,,,,,,,,,,,,,921.2927781001199,926.2922771000303,926.2922843000852,926.308785200119,934.2922847999725,934.2922847999725,937.2589390000794,937.2922353001777,937.2922353001777,937.2757690001745,3.84,4.96,384,496,8,1.2,0.75,pic-present,1,m,0.913969999877736,None,,,,,sub-030,45,43.4,45.9,COM3,2024-02-22_11h19.38.498,2024_RDpaindiscrimination_maintask,2023.2.3,60.000456034877985,2024-02-22 11h20.00.053614 -0500,
0,0,0,0,,,,,3,0,3,0,,,,,2,0,2,0,937.2922353001777,,,,,,,,,,,,,,2,inactive,,,,,,,,,,,,,,,,,937.2762692000251,942.2757723999675,942.2757797001395,942.2922600000165,950.2757014001254,950.2757014001254,953.2424008001108,953.2757383000571,953.2757383000571,953.2592577000614,4.69,4.11,469,411,8,1.2,0.75,pic-absent,0,n,1.4384779001120478,None,,,,,sub-030,45,43.4,45.9,COM3,2024-02-22_11h19.38.498,2024_RDpaindiscrimination_maintask,2023.2.3,60.000456034877985,2024-02-22 11h20.00.053614 -0500,
0,0,0,0,,,,,3,0,3,0,,,,,3,0,3,0,953.2757383000571,,,,,,,,,,,,,,3,inactive,,,,,,,,,,,,,,,,,953.2597155000549,958.2593271001242,958.2593345001806,958.2758494000882,966.2592197000049,966.2592197000049,969.2258346001618,969.2591556000989,969.2591556000989,969.242679500021,4.56,4.24,455,424,8,1.2,0.75,pic-present,1,m,1.1679622998926789,None,,,,,sub-030,45,43.4,45.9,COM3,2024-02-22_11h19.38.498,2024_RDpaindiscrimination_maintask,2023.2.3,60.000456034877985,2024-02-22 11h20.00.053614 -0500,
1,0,1,0,0,0,0,0,,,,,,,,,,,,,1047.0600572000258,,,,1037.6104343000334,1041.0269389001187,1041.0269476999529,1047.0436711001676,1047.0439864001237,1052.0435969999526,1052.0436040000059,1052.0601304001175,1064.0768709999975,1064.0441705000121,0,inactive,45.0,1064.0443826001137,1067.1964712000918,50.0,3.13,,,,,,,,,,,,,,,,,,,,,,,,,,,,,,,,,,969.2431432001758,1037.6102781000081,,,sub-030,45,43.4,45.9,COM3,2024-02-22_11h19.38.498,2024_RDpaindiscrimination_maintask,2023.2.3,60.000456034877985,2024-02-22 11h20.00.053614 -0500,
1,0,1,0,1,0,1,0,,,,,,,,,,,,,1067.210276799975,,,,,,,,1067.1973488000222,1072.1938157000113,1072.1938226001803,1072.2103194000665,1084.2271521000657,1084.1944840999786,1,active,43.4,1084.1946323001757,1090.1953603001311,5.000000000000058,5.982,,,,,,,,,,,,,,,,,,,,,,,,,,,,,,,,,,,,,,sub-030,45,43.4,45.9,COM3,2024-02-22_11h19.38.498,2024_RDpaindiscrimination_maintask,2023.2.3,60.000456034877985,2024-02-22 11h20.00.053614 -0500,
1,0,1,0,2,0,2,0,,,,,,,,,,,,,1090.2106030001305,,,,,,,,1090.1961354999803,1095.1940607000142,1095.1940677000675,1095.2105609001592,1107.2273562001064,1107.1945368000306,2,inactive,45.0,1107.1946831999812,1110.5288309000898,47.000000000000114,3.315,,,,,,,,,,,,,,,,,,,,,,,,,,,,,,,,,,,,,,sub-030,45,43.4,45.9,COM3,2024-02-22_11h19.38.498,2024_RDpaindiscrimination_maintask,2023.2.3,60.000456034877985,2024-02-22 11h20.00.053614 -0500,
1,0,1,0,3,0,3,0,,,,,,,,,,,,,1110.54407240008,,,,,,,,1110.5295818001032,1115.5276480000466,1115.5276544999797,1115.544110500021,1127.5609953000676,1127.5280939000659,3,active,43.4,1127.5282396001276,1130.3133688999806,25.99999999999998,2.767,,,,,,,,,,,,,,,,,,,,,,,,,,,,,,,,,,,,,,sub-030,45,43.4,45.9,COM3,2024-02-22_11h19.38.498,2024_RDpaindiscrimination_maintask,2023.2.3,60.000456034877985,2024-02-22 11h20.00.053614 -0500,
1,0,1,0,4,0,4,0,,,,,,,,,,,,,1130.327689100057,,,,,,,,1130.3143818001263,1135.3112994001713,1135.3113055999856,1135.3276981001254,1147.3444676999934,1147.3116407000925,0,inactive,45.0,1147.3117870001588,1150.1957370000891,47.999999999999936,2.865,,,,,,,,,,,,,,,,,,,,,,,,,,,,,,,,,,,,,,sub-030,45,43.4,45.9,COM3,2024-02-22_11h19.38.498,2024_RDpaindiscrimination_maintask,2023.2.3,60.000456034877985,2024-02-22 11h20.00.053614 -0500,
1,0,1,0,5,0,5,0,,,,,,,,,,,,,1150.2112135000061,,,,,,,,1150.1965509001166,1155.194742700085,1155.1947536000516,1155.211163100088,1167.2280445001088,1167.195157200098,1,active,43.4,1167.195306000067,1171.8793129001278,11.000000000000071,4.665,,,,,,,,,,,,,,,,,,,,,,,,,,,,,,,,,,,,,,sub-030,45,43.4,45.9,COM3,2024-02-22_11h19.38.498,2024_RDpaindiscrimination_maintask,2023.2.3,60.000456034877985,2024-02-22 11h20.00.053614 -0500,
1,0,1,0,6,0,6,0,,,,,,,,,,,,,1171.8946649001446,,,,,,,,1171.880080900155,1176.8782081999816,1176.8782150000334,1176.8947110001463,1188.9116303999908,1188.878737400053,2,active,43.4,1188.8788834000006,1192.1128503000364,13.0000000000001,3.216,,,,,,,,,,,,,,,,,,,,,,,,,,,,,,,,,,,,,,sub-030,45,43.4,45.9,COM3,2024-02-22_11h19.38.498,2024_RDpaindiscrimination_maintask,2023.2.3,60.000456034877985,2024-02-22 11h20.00.053614 -0500,
1,0,1,0,7,0,7,0,,,,,,,,,,,,,1192.1282572001219,,,,,,,,1192.1135679001454,1197.1117603001185,1197.11176660005,1197.12831070018,1209.145148199983,1209.112286100164,3,inactive,45.0,1209.112436800031,1212.6477685000282,51.00000000000007,3.517,,,,,,,,,,,,,,,,,,,,,,,,,,,,,,,,,,,,,,sub-030,45,43.4,45.9,COM3,2024-02-22_11h19.38.498,2024_RDpaindiscrimination_maintask,2023.2.3,60.000456034877985,2024-02-22 11h20.00.053614 -0500,
1,0,1,0,8,0,8,0,,,,,,,,,,,,,1212.661842700094,,,,,,,,1212.648527200101,1217.645306300139,1217.6453172001056,1217.661819100147,1229.6787125000264,1229.6458714001346,0,active,43.4,1229.6460144000594,1233.3307183000725,15.000000000000139,3.666,,,,,,,,,,,,,,,,,,,,,,,,,,,,,,,,,,,,,,sub-030,45,43.4,45.9,COM3,2024-02-22_11h19.38.498,2024_RDpaindiscrimination_maintask,2023.2.3,60.000456034877985,2024-02-22 11h20.00.053614 -0500,
1,0,1,0,9,0,9,0,,,,,,,,,,,,,1233.345322499983,,,,,,,,1233.3314813000616,1238.3289920000825,1238.3289989000186,1238.345422900049,1250.362232600106,1250.3293859001715,1,inactive,45.0,1250.3295325001236,1253.9810278001241,43.5,3.633,,,,,,,,,,,,,,,,,,,,,,,,,,,,,,,,,,,,,,sub-030,45,43.4,45.9,COM3,2024-02-22_11h19.38.498,2024_RDpaindiscrimination_maintask,2023.2.3,60.000456034877985,2024-02-22 11h20.00.053614 -0500,
1,0,1,0,10,0,10,0,,,,,,,,,,,,,1253.9955702000298,,,,,,,,1253.981844900176,1258.9791127000935,1258.9791191001423,1258.9956155000255,1271.0124786000233,1270.979656800162,2,active,43.4,1270.9798051000107,1276.280613800045,14.000000000000075,5.282,,,,,,,,,,,,,,,,,,,,,,,,,,,,,,,,,,,,,,sub-030,45,43.4,45.9,COM3,2024-02-22_11h19.38.498,2024_RDpaindiscrimination_maintask,2023.2.3,60.000456034877985,2024-02-22 11h20.00.053614 -0500,
1,0,1,0,11,0,11,0,,,,,,,,,,,,,1276.295885300031,,,,,,,,1276.2813766000327,1281.2794315000065,1281.2794384001754,1281.2958949999884,1293.3127246999647,1293.2798526000697,3,inactive,45.0,1293.280000400031,1296.0820333999582,40.0,2.783,,,,,,,,,,,,,,,,,,,,,,,,,,,,,,,,,,,,,,sub-030,45,43.4,45.9,COM3,2024-02-22_11h19.38.498,2024_RDpaindiscrimination_maintask,2023.2.3,60.000456034877985,2024-02-22 11h20.00.053614 -0500,
1,0,1,0,12,0,12,0,,,,,,,,,,,,,1296.0961078000255,,,,,,,,1296.0828053001314,1301.0797020001337,1301.0797085999511,1301.096140800044,1313.1128454999998,1313.0799912000075,0,active,43.4,1313.0801358001772,1316.9817664001603,10.000000000000169,3.883,,,,,,,,,,,,,,,,,,,,,,,,,,,,,,,,,,,,,,sub-030,45,43.4,45.9,COM3,2024-02-22_11h19.38.498,2024_RDpaindiscrimination_maintask,2023.2.3,60.000456034877985,2024-02-22 11h20.00.053614 -0500,
1,0,1,0,13,0,13,0,,,,,,,,,,,,,1316.9962576001417,,,,,,,,1316.9826016000006,1321.979849900119,1321.9798571001738,1321.996331000002,1334.0131486000028,1333.9802638001274,1,inactive,45.0,1333.9804122000933,1337.8658607001416,35.00000000000003,3.867,,,,,,,,,,,,,,,,,,,,,,,,,,,,,,,,,,,,,,sub-030,45,43.4,45.9,COM3,2024-02-22_11h19.38.498,2024_RDpaindiscrimination_maintask,2023.2.3,60.000456034877985,2024-02-22 11h20.00.053614 -0500,
1,0,1,0,14,0,14,0,,,,,,,,,,,,,1337.879860599991,,,,,,,,1337.866686400026,1342.8633046001196,1342.863311600173,1342.8797899000347,1354.8967115001287,1354.8638524999842,2,inactive,45.0,1354.8640155000612,1358.4829359001014,40.00000000000011,3.6,,,,,,,,,,,,,,,,,,,,,,,,,,,,,,,,,,,,,,sub-030,45,43.4,45.9,COM3,2024-02-22_11h19.38.498,2024_RDpaindiscrimination_maintask,2023.2.3,60.000456034877985,2024-02-22 11h20.00.053614 -0500,
1,0,1,0,15,0,15,0,,,,,,,,,,,,,1358.4967758001294,,,,,,,,1358.4837241000496,1363.4802497001365,1363.4802562000696,1363.4966747001745,1375.513553300174,1375.480684200069,3,active,43.4,1375.4808301001322,1380.0155631001107,9.500000000000071,4.516,,,,,,,,,,,,,,,,,,,,,,,,,,,,,,,,,,,,,,sub-030,45,43.4,45.9,COM3,2024-02-22_11h19.38.498,2024_RDpaindiscrimination_maintask,2023.2.3,60.000456034877985,2024-02-22 11h20.00.053614 -0500,
1,0,1,0,,,,,0,0,0,0,0,0,0,0,,,,,1404.4971261001192,,,,,,1402.0310549000278,1404.4807068000082,,,,,,,0,active,45.0,1421.4811875000596,1426.033471000148,26.000000000000057,4.534,1380.016171199968,1380.030266799964,1402.0307212001644,1404.4810134000145,1409.4806568999775,1409.4806639000308,1409.4972417999525,1421.5140350000001,1421.4811786999926,,,,,,,,,,,,,,,,,,,,,,,,,,,,,sub-030,45,43.4,45.9,COM3,2024-02-22_11h19.38.498,2024_RDpaindiscrimination_maintask,2023.2.3,60.000456034877985,2024-02-22 11h20.00.053614 -0500,
1,0,1,0,,,,,0,0,0,0,1,0,1,0,,,,,1426.0473691001534,,,,,,,,,,,,,,1,inactive,45.0,1443.0312277001794,1446.0831335999537,23.00000000000013,3.033,,,,1426.0342358001508,1431.0308992001228,1431.0309057000559,1431.0473730000667,1443.064213000005,1443.03121990012,,,,,,,,,,,,,,,,,,,,,,,,,,,,,sub-030,45,43.4,45.9,COM3,2024-02-22_11h19.38.498,2024_RDpaindiscrimination_maintask,2023.2.3,60.000456034877985,2024-02-22 11h20.00.053614 -0500,
1,0,1,0,,,,,0,0,0,0,,,,,0,0,0,0,1450.4143137000501,,,,,,,,,,,,,,2,active,,,,,,,,,,,,,,,1446.0836873999797,1450.3978953000624,1450.398199000163,1455.4018131999765,1455.4018213001546,1455.4143135000486,1463.3977518000174,1463.3977518000174,1466.3644438001793,1466.3977869001683,1466.3977869001683,1466.381326300092,3.3,5.5,330,550,8,1.2,0.75,pic-present,1,m,1.003759300103411,None,,,,,sub-030,45,43.4,45.9,COM3,2024-02-22_11h19.38.498,2024_RDpaindiscrimination_maintask,2023.2.3,60.000456034877985,2024-02-22 11h20.00.053614 -0500,
1,0,1,0,,,,,0,0,0,0,,,,,1,0,1,0,1466.3977869001683,,,,,,,,,,,,,,3,inactive,,,,,,,,,,,,,,,,,1466.3818777000997,1471.381428600056,1471.381436200114,1471.3978319000453,1479.3813501000404,1479.3813501000404,1482.3479504999705,1482.3813430999871,1482.3813430999871,1482.364807400154,4.06,4.74,405,474,8,1.2,0.75,pic-absent,0,n,1.2038720999844372,None,,,,,sub-030,45,43.4,45.9,COM3,2024-02-22_11h19.38.498,2024_RDpaindiscrimination_maintask,2023.2.3,60.000456034877985,2024-02-22 11h20.00.053614 -0500,
1,0,1,0,,,,,0,0,0,0,,,,,2,0,2,0,1482.3813430999871,,,,,,,,,,,,,,0,active,,,,,,,,,,,,,,,,,1482.3652804000303,1487.3648556000553,1487.3648628001101,1487.3813384000678,1495.364813900087,1495.364813900087,1498.331466600066,1498.3647563999984,1498.3647563999984,1498.3482695999555,4.42,4.38,442,438,8,1.2,0.75,pic-absent,0,n,1.1646891001146287,None,,,,,sub-030,45,43.4,45.9,COM3,2024-02-22_11h19.38.498,2024_RDpaindiscrimination_maintask,2023.2.3,60.000456034877985,2024-02-22 11h20.00.053614 -0500,
1,0,1,0,,,,,0,0,0,0,,,,,3,0,3,0,1498.3647563999984,,,,,,,,,,,,,,1,active,,,,,,,,,,,,,,,,,1498.3487270001788,1503.3483452000655,1503.3483523000032,1503.3648076001555,1511.348225899972,1511.348225899972,1514.314925899962,1514.3482588001061,1514.3482588001061,1514.3317911000922,4.29,4.51,429,451,8,1.2,0.75,pic-present,1,m,1.125474900007248,None,,,,,sub-030,45,43.4,45.9,COM3,2024-02-22_11h19.38.498,2024_RDpaindiscrimination_maintask,2023.2.3,60.000456034877985,2024-02-22 11h20.00.053614 -0500,
1,0,1,0,,,,,1,0,1,0,0,0,0,0,,,,,1516.8149774000049,,,,,,1514.3323176000267,1516.798542600125,,,,,,,2,inactive,45.0,1533.7988642000128,1536.999206900131,32.999999999999986,3.181,,,,1516.798868900165,1521.7985360000748,1521.7985431000125,1521.8150071001146,1533.8317931999918,1533.798855900066,,,,,,,,,,,,,,,,,,,,,,,,,,,,,sub-030,45,43.4,45.9,COM3,2024-02-22_11h19.38.498,2024_RDpaindiscrimination_maintask,2023.2.3,60.000456034877985,2024-02-22 11h20.00.053614 -0500,
1,0,1,0,,,,,1,0,1,0,1,0,1,0,,,,,1537.0152078000829,,,,,,,,,,,,,,3,active,45.0,1553.9991898001172,1556.5852145000827,22.99999999999999,2.567,,,,1536.999477100093,1541.9987002999987,1541.9987119999714,1542.0152138001285,1554.032007999951,1553.9991818000562,,,,,,,,,,,,,,,,,,,,,,,,,,,,,sub-030,45,43.4,45.9,COM3,2024-02-22_11h19.38.498,2024_RDpaindiscrimination_maintask,2023.2.3,60.000456034877985,2024-02-22 11h20.00.053614 -0500,
1,0,1,0,,,,,1,0,1,0,,,,,0,0,0,0,1559.2320926999673,,,,,,,,,,,,,,0,inactive,,,,,,,,,,,,,,,1556.5858096999582,1559.2156964000314,1559.2160171000287,1564.2156303999946,1564.2156380000524,1564.23223770014,1572.2155716000125,1572.2155716000125,1575.1823078000452,1575.2156315001193,1575.2156315001193,1575.1991043000016,4.2,4.6,420,459,8,1.2,0.75,pic-absent,1,m,1.1864177999086678,None,,,,,sub-030,45,43.4,45.9,COM3,2024-02-22_11h19.38.498,2024_RDpaindiscrimination_maintask,2023.2.3,60.000456034877985,2024-02-22 11h20.00.053614 -0500,
1,0,1,0,,,,,1,0,1,0,,,,,1,0,1,0,1575.2156315001193,,,,,,,,,,,,,,1,active,,,,,,,,,,,,,,,,,1575.199773200089,1580.1992065999657,1580.1992141001392,1580.2156416999642,1588.199066300178,1588.199066300178,1591.1658229001332,1591.199093000032,1591.199093000032,1591.18261420005,4.0,4.8,400,480,8,1.2,0.75,pic-present,0,n,2.1345069999806583,None,,,,,sub-030,45,43.4,45.9,COM3,2024-02-22_11h19.38.498,2024_RDpaindiscrimination_maintask,2023.2.3,60.000456034877985,2024-02-22 11h20.00.053614 -0500,
1,0,1,0,,,,,1,0,1,0,,,,,2,0,2,0,1591.199093000032,,,,,,,,,,,,,,2,active,,,,,,,,,,,,,,,,,1591.1830892001744,1596.1826689001173,1596.1826766000595,1596.1991876000538,1604.1826418000273,1604.1826418000273,1607.1492624999955,1607.1825866000727,1607.1825866000727,1607.1661416001152,4.25,4.55,425,455,8,1.2,0.75,pic-present,1,m,1.0149020000826567,None,,,,,sub-030,45,43.4,45.9,COM3,2024-02-22_11h19.38.498,2024_RDpaindiscrimination_maintask,2023.2.3,60.000456034877985,2024-02-22 11h20.00.053614 -0500,
1,0,1,0,,,,,1,0,1,0,,,,,3,0,3,0,1607.1825866000727,,,,,,,,,,,,,,3,inactive,,,,,,,,,,,,,,,,,1607.1665902000386,1612.1663866001181,1612.1663939000573,1612.1826484000776,1620.1661433000118,1620.1661433000118,1623.1327268001623,1623.1660698000342,1623.1660698000342,1623.1496342001483,4.54,4.26,454,426,8,1.2,0.75,pic-absent,0,n,1.1634472999721766,None,,,,,sub-030,45,43.4,45.9,COM3,2024-02-22_11h19.38.498,2024_RDpaindiscrimination_maintask,2023.2.3,60.000456034877985,2024-02-22 11h20.00.053614 -0500,
1,0,1,0,,,,,2,0,2,0,0,0,0,0,,,,,1625.7662170999683,,,,,,1623.1501079001464,1625.7497410001233,,,,,,,0,active,45.0,1642.750074800104,1645.719600399956,18.000000000000036,2.951,,,,1625.7500442001037,1630.7496939999983,1630.749701200053,1630.7662062000018,1642.7830362000968,1642.750066000037,,,,,,,,,,,,,,,,,,,,,,,,,,,,,sub-030,45,43.4,45.9,COM3,2024-02-22_11h19.38.498,2024_RDpaindiscrimination_maintask,2023.2.3,60.000456034877985,2024-02-22 11h20.00.053614 -0500,
1,0,1,0,,,,,2,0,2,0,1,0,1,0,,,,,1645.7330673001707,,,,,,,,,,,,,,1,inactive,45.0,1662.7168278000318,1666.1865193999838,20.000000000000107,3.451,,,,1645.7203353000805,1650.7166148000397,1650.716621800093,1650.7330839000642,1662.749909200007,1662.716820300091,,,,,,,,,,,,,,,,,,,,,,,,,,,,,sub-030,45,43.4,45.9,COM3,2024-02-22_11h19.38.498,2024_RDpaindiscrimination_maintask,2023.2.3,60.000456034877985,2024-02-22 11h20.00.053614 -0500,
1,0,1,0,,,,,2,0,2,0,,,,,0,0,0,0,1668.9999957000837,,,,,,,,,,,,,,2,active,,,,,,,,,,,,,,,1666.1871009999886,1668.983732300112,1668.9840416000225,1673.9835481999908,1673.983555600047,1673.9999738000333,1681.9833468999714,1681.9833468999714,1684.950075100176,1684.9834498001728,1684.9834498001728,1684.9669341000263,4.7,4.1,470,409,8,1.2,0.75,pic-absent,0,n,1.1253357999958098,None,,,,,sub-030,45,43.4,45.9,COM3,2024-02-22_11h19.38.498,2024_RDpaindiscrimination_maintask,2023.2.3,60.000456034877985,2024-02-22 11h20.00.053614 -0500,
1,0,1,0,,,,,2,0,2,0,,,,,1,0,1,0,1684.9834498001728,,,,,,,,,,,,,,3,inactive,,,,,,,,,,,,,,,,,1684.967484800145,1689.9669827001635,1689.9669902001042,1689.983463200042,1697.9668936999515,1697.9668936999515,1700.9335864000022,1700.9669225001708,1700.9669225001708,1700.9504647001158,3.38,5.42,338,542,8,1.2,0.75,pic-present,1,m,0.9939587998669595,None,,,,,sub-030,45,43.4,45.9,COM3,2024-02-22_11h19.38.498,2024_RDpaindiscrimination_maintask,2023.2.3,60.000456034877985,2024-02-22 11h20.00.053614 -0500,
1,0,1,0,,,,,2,0,2,0,,,,,2,0,2,0,1700.9669225001708,,,,,,,,,,,,,,0,inactive,,,,,,,,,,,,,,,,,1700.9509558000136,1705.9504597999621,1705.9504671001341,1705.9670104000252,1713.9504478001036,1713.9504478001036,1716.917086899979,1716.9504249000456,1716.9504249000456,1716.9339366001077,4.35,4.45,434,445,8,1.2,0.75,pic-absent,0,n,1.0025415997952223,None,,,,,sub-030,45,43.4,45.9,COM3,2024-02-22_11h19.38.498,2024_RDpaindiscrimination_maintask,2023.2.3,60.000456034877985,2024-02-22 11h20.00.053614 -0500,
1,0,1,0,,,,,2,0,2,0,,,,,3,0,3,0,1716.9504249000456,,,,,,,,,,,,,,1,active,,,,,,,,,,,,,,,,,1716.9344046001788,1721.9339928999543,1721.9339999000076,1721.9504677001387,1729.933934000088,1729.933934000088,1732.900595900137,1732.9339177000802,1732.9339177000802,1732.9174544000998,3.72,5.08,372,508,8,1.2,0.75,pic-absent,0,n,1.0592600000090897,None,,,,,sub-030,45,43.4,45.9,COM3,2024-02-22_11h19.38.498,2024_RDpaindiscrimination_maintask,2023.2.3,60.000456034877985,2024-02-22 11h20.00.053614 -0500,
1,0,1,0,,,,,3,0,3,0,0,0,0,0,,,,,1735.5339942001738,,,,,,1732.9179289999884,1735.5177307999693,,,,,,,2,inactive,45.0,1752.5180463001598,1755.8860315000638,28.00000000000015,3.349,,,,1735.5180430000182,1740.5175358001143,1740.5175431000534,1740.5340078000445,1752.5508820000105,1752.5180375000928,,,,,,,,,,,,,,,,,,,,,,,,,,,,,sub-030,45,43.4,45.9,COM3,2024-02-22_11h19.38.498,2024_RDpaindiscrimination_maintask,2023.2.3,60.000456034877985,2024-02-22 11h20.00.053614 -0500,
1,0,1,0,,,,,3,0,3,0,1,0,1,0,,,,,1755.9009116000962,,,,,,,,,,,,,,3,active,45.0,1772.88490179996,1775.63737770007,25.50000000000005,2.733,,,,1755.8868589000776,1760.8845009000506,1760.8845107001252,1760.900969099952,1772.9177268999629,1772.8848932001274,,,,,,,,,,,,,,,,,,,,,,,,,,,,,sub-030,45,43.4,45.9,COM3,2024-02-22_11h19.38.498,2024_RDpaindiscrimination_maintask,2023.2.3,60.000456034877985,2024-02-22 11h20.00.053614 -0500,
1,0,1,0,,,,,3,0,3,0,,,,,0,0,0,0,1777.4344733001199,,,,,,,,,,,,,,0,inactive,,,,,,,,,,,,,,,1775.63789490005,1777.4181927000172,1777.418528500013,1782.4178993001115,1782.4179063001648,1782.4344122000039,1790.417813600041,1790.417813600041,1793.384516300168,1793.4178939000703,1793.4178939000703,1793.4013664000668,4.69,4.11,469,411,8,1.2,0.75,pic-present,1,m,1.191366699989885,None,,,,,sub-030,45,43.4,45.9,COM3,2024-02-22_11h19.38.498,2024_RDpaindiscrimination_maintask,2023.2.3,60.000456034877985,2024-02-22 11h20.00.053614 -0500,
1,0,1,0,,,,,3,0,3,0,,,,,1,0,1,0,1793.4178939000703,,,,,,,,,,,,,,1,active,,,,,,,,,,,,,,,,,1793.4019019000698,1798.4015089999884,1798.401516900165,1798.417980400147,1806.4014433000702,1806.4014433000702,1809.368016900029,1809.40135810012,1809.40135810012,1809.3848771001212,4.57,4.23,457,423,8,1.2,0.75,pic-absent,0,n,1.0119892000220716,None,,,,,sub-030,45,43.4,45.9,COM3,2024-02-22_11h19.38.498,2024_RDpaindiscrimination_maintask,2023.2.3,60.000456034877985,2024-02-22 11h20.00.053614 -0500,
1,0,1,0,,,,,3,0,3,0,,,,,2,0,2,0,1809.40135810012,,,,,,,,,,,,,,2,inactive,,,,,,,,,,,,,,,,,1809.385329999961,1814.384928200161,1814.384935399983,1814.4014546000399,1822.384942600038,1822.384942600038,1825.3516043999698,1825.3849065999966,1825.3849065999966,1825.3685369000304,3.91,4.89,391,488,8,1.2,0.75,pic-present,1,m,1.1639424001332372,None,,,,,sub-030,45,43.4,45.9,COM3,2024-02-22_11h19.38.498,2024_RDpaindiscrimination_maintask,2023.2.3,60.000456034877985,2024-02-22 11h20.00.053614 -0500,
1,0,1,0,,,,,3,0,3,0,,,,,3,0,3,0,1825.3849065999966,,,,,,,,,,,,,,3,inactive,,,,,,,,,,,,,,,,,1825.3689876000863,1830.368442100007,1830.3684503000695,1830.384948699968,1838.3684414001182,1838.3684414001182,1841.3351370000746,1841.3684720001183,1841.3684720001183,1841.3519974001683,4.0,4.8,400,480,8,1.2,0.75,pic-present,1,m,0.8404294000938535,None,,,,,sub-030,45,43.4,45.9,COM3,2024-02-22_11h19.38.498,2024_RDpaindiscrimination_maintask,2023.2.3,60.000456034877985,2024-02-22 11h20.00.053614 -0500,
,,,,,,,,,,,,,,,,,,,,,,,,,,,,,,,,,,,,,,,,,,,,,,,,,,,,,,,,,,,,,,,,,,,,,,,,,,1841.3524352000095,1843.902033300139,1843.9020538001787,1853.9020263000857,,,,,,,,,,,
