trials.thisRepN,trials.thisTrialN,trials.thisN,trials.thisIndex,loop_test.thisRepN,loop_test.thisTrialN,loop_test.thisN,loop_test.thisIndex,loop_eval_discri.thisRepN,loop_eval_discri.thisTrialN,loop_eval_discri.thisN,loop_eval_discri.thisIndex,loop_eval.thisRepN,loop_eval.thisTrialN,loop_eval.thisN,loop_eval.thisIndex,loop_discri.thisRepN,loop_discri.thisTrialN,loop_discri.thisN,loop_discri.thisIndex,thisRow.t,notes,Set_up.started,Set_up.stopped,electrode_check.started,electrode_check.stopped,instructions_eval.started,instructions_eval.stopped,pause_5_test.started,pause_5_test.stopped,Phase_Test.started,thermode_locali.started,thermode_locali.stopped,Phase_Test.stopped,loca_thermode,condition,temp_trial_sent,eval_douleur.started,eval_douleur.stopped,ratingScale.response,ratingScale.rt,Fin_test.started,text.started,Fin_test.stopped,pause_5_EVA.started,pause_5_EVA.stopped,tâche_EVA.started,thermode_locali_EVA.started,thermode_locali_EVA.stopped,tâche_EVA.stopped,instructions_discrim.started,instructions_discrim.stopped,pause_5_pic.started,pause_5_pic.stopped,tâche_PIC.started,thermode_locali_pic.started,percu_or.started,responser.started,thermode_locali_pic.stopped,percu_or.stopped,responser.stopped,tâche_PIC.stopped,dur_plateau1,dur_plateau2,dur_plateau1_sent,dur_plateau2_sent,start_plateau_2_resp,dur_pic,dur_rise,pic_presence,pic_response,discrimin_resp.keys,discrimin_resp.rt,discrimin_resp.duration,break_entre_bloc.started,break_entre_bloc.stopped,merci.started,merci.stopped,participant,temp_flat,temp_active,temp_pic_set,com_thermode,date,expName,psychopyVersion,frameRate,expStart,
0,0,0,0,0,0,0,0,,,,,,,,,,,,,115.08580960007384,,0.018005300080403686,110.86935749999247,110.86975479999091,113.0527473000111,113.05275550007354,115.0695886000758,115.0698882000288,120.06945680000354,120.06946370005608,120.08588250004686,132.10263740003575,132.06988630001433,0,inactive,46.4,132.0701092000818,134.85531650006305,47.499999999999986,2.762,,,,,,,,,,,,,,,,,,,,,,,,,,,,,,,,,,,,,,sub-019,46.4,44.1,47.35,COM3,2024-02-08_12h34.51.844,2024_RDpaindiscrimination_maintask,2023.2.3,59.993400703609076,2024-02-08 12h35.15.102135 -0500,
0,0,0,0,1,0,1,0,,,,,,,,,,,,,134.86948790005408,,,,,,,,134.8566338000819,139.85300460003782,139.8530114000896,139.86946389998775,151.88631450000685,151.85339569998905,1,active,44.1,151.85354190005455,154.28864939999767,10.000000000000098,2.416,,,,,,,,,,,,,,,,,,,,,,,,,,,,,,,,,,,,,,sub-019,46.4,44.1,47.35,COM3,2024-02-08_12h34.51.844,2024_RDpaindiscrimination_maintask,2023.2.3,59.993400703609076,2024-02-08 12h35.15.102135 -0500,
0,0,0,0,2,0,2,0,,,,,,,,,,,,,154.3031152000185,,,,,,,,154.28939390007872,159.28656899998896,159.28657580004074,159.30306290008593,171.3198647000827,171.28711939998902,2,inactive,46.4,171.28726080001798,174.2051612000214,49.9999999999999,2.899,,,,,,,,,,,,,,,,,,,,,,,,,,,,,,,,,,,,,,sub-019,46.4,44.1,47.35,COM3,2024-02-08_12h34.51.844,2024_RDpaindiscrimination_maintask,2023.2.3,59.993400703609076,2024-02-08 12h35.15.102135 -0500,
0,0,0,0,3,0,3,0,,,,,,,,,,,,,174.21980570000596,,,,,,,,174.2059370999923,179.20344820001628,179.20345470006578,179.2198803999927,191.23674480000045,191.20387770002708,3,active,44.1,191.2040231000865,194.15559390001,7.500000000000096,2.932,,,,,,,,,,,,,,,,,,,,,,,,,,,,,,,,,,,,,,sub-019,46.4,44.1,47.35,COM3,2024-02-08_12h34.51.844,2024_RDpaindiscrimination_maintask,2023.2.3,59.993400703609076,2024-02-08 12h35.15.102135 -0500,
0,0,0,0,4,0,4,0,,,,,,,,,,,,,194.17011920001823,,,,,,,,194.1563421000028,199.15368250000756,199.1536889000563,199.17018030001782,211.18698160001077,211.1541373000946,0,inactive,46.4,211.15428670006804,214.40519510000013,46.499999999999986,3.232,,,,,,,,,,,,,,,,,,,,,,,,,,,,,,,,,,,,,,sub-019,46.4,44.1,47.35,COM3,2024-02-08_12h34.51.844,2024_RDpaindiscrimination_maintask,2023.2.3,59.993400703609076,2024-02-08 12h35.15.102135 -0500,
0,0,0,0,5,0,5,0,,,,,,,,,,,,,214.4203435999807,,,,,,,,214.40595980000217,219.40389900002629,219.40390550007578,219.42032530007418,231.43718640005682,231.40430040005594,1,active,44.1,231.40444110007957,233.5073053999804,8.000000000000025,2.084,,,,,,,,,,,,,,,,,,,,,,,,,,,,,,,,,,,,,,sub-019,46.4,44.1,47.35,COM3,2024-02-08_12h34.51.844,2024_RDpaindiscrimination_maintask,2023.2.3,59.993400703609076,2024-02-08 12h35.15.102135 -0500,
0,0,0,0,6,0,6,0,,,,,,,,,,,,,233.520555300056,,,,,,,,233.50814050005283,238.50401760009117,238.50402410002425,238.52052380004898,250.5373994000256,250.50448200001847,2,inactive,46.4,250.50462690007407,254.35596790001728,51.500000000000064,3.832,,,,,,,,,,,,,,,,,,,,,,,,,,,,,,,,,,,,,,sub-019,46.4,44.1,47.35,COM3,2024-02-08_12h34.51.844,2024_RDpaindiscrimination_maintask,2023.2.3,59.993400703609076,2024-02-08 12h35.15.102135 -0500,
0,0,0,0,7,0,7,0,,,,,,,,,,,,,254.37079740001354,,,,,,,,254.3567958000349,259.3543514000485,259.3543584999861,259.3707351000048,271.38765110005625,271.35486920003314,3,inactive,46.4,271.35501900000963,273.3410589999985,50.99999999999993,1.967,,,,,,,,,,,,,,,,,,,,,,,,,,,,,,,,,,,,,,sub-019,46.4,44.1,47.35,COM3,2024-02-08_12h34.51.844,2024_RDpaindiscrimination_maintask,2023.2.3,59.993400703609076,2024-02-08 12h35.15.102135 -0500,
0,0,0,0,8,0,8,0,,,,,,,,,,,,,273.35433410003316,,,,,,,,273.3418820000952,278.33792359998915,278.33793170005083,278.35431080008857,290.3711933000013,290.33830370008945,0,active,44.1,290.33844339998905,293.9902438999852,4.0000000000002,3.633,,,,,,,,,,,,,,,,,,,,,,,,,,,,,,,,,,,,,,sub-019,46.4,44.1,47.35,COM3,2024-02-08_12h34.51.844,2024_RDpaindiscrimination_maintask,2023.2.3,59.993400703609076,2024-02-08 12h35.15.102135 -0500,
0,0,0,0,9,0,9,0,,,,,,,,,,,,,294.0045627000509,,,,,,,,293.99070540000685,298.988130700076,298.9881371000083,299.0045624000486,311.02142610005103,310.9886026000604,1,inactive,46.4,310.98874250007793,312.4908739000093,54.499999999999986,1.483,,,,,,,,,,,,,,,,,,,,,,,,,,,,,,,,,,,,,,sub-019,46.4,44.1,47.35,COM3,2024-02-08_12h34.51.844,2024_RDpaindiscrimination_maintask,2023.2.3,59.993400703609076,2024-02-08 12h35.15.102135 -0500,
0,0,0,0,10,0,10,0,,,,,,,,,,,,,312.50476280006114,,,,,,,,312.49168390000705,317.4883411000483,317.4883474999806,317.504752799985,329.52162610006053,329.4887423000764,2,active,44.1,329.48888600000646,332.35831510007847,6.00000000000013,2.851,,,,,,,,,,,,,,,,,,,,,,,,,,,,,,,,,,,,,,sub-019,46.4,44.1,47.35,COM3,2024-02-08_12h34.51.844,2024_RDpaindiscrimination_maintask,2023.2.3,59.993400703609076,2024-02-08 12h35.15.102135 -0500,
0,0,0,0,11,0,11,0,,,,,,,,,,,,,332.3716649999842,,,,,,,,332.35911820002366,337.35510769998655,337.3551149000414,337.37163409998175,349.3885226000566,349.3556256000884,3,inactive,46.4,349.35577470005956,352.0239941000473,58.00000000000008,2.649,,,,,,,,,,,,,,,,,,,,,,,,,,,,,,,,,,,,,,sub-019,46.4,44.1,47.35,COM3,2024-02-08_12h34.51.844,2024_RDpaindiscrimination_maintask,2023.2.3,59.993400703609076,2024-02-08 12h35.15.102135 -0500,
0,0,0,0,12,0,12,0,,,,,,,,,,,,,352.03855910000857,,,,,,,,352.02472330001183,357.02193630009424,357.0219420000212,357.03850200003944,369.0552891000407,369.02245580009185,0,active,44.1,369.0226068000775,371.9572508999845,4.499999999999988,2.915,,,,,,,,,,,,,,,,,,,,,,,,,,,,,,,,,,,,,,sub-019,46.4,44.1,47.35,COM3,2024-02-08_12h34.51.844,2024_RDpaindiscrimination_maintask,2023.2.3,59.993400703609076,2024-02-08 12h35.15.102135 -0500,
0,0,0,0,13,0,13,0,,,,,,,,,,,,,371.9721235000761,,,,,,,,371.95752480009105,376.9556993000442,376.95570619998034,376.9721675000619,388.9889713000739,388.9561946000904,1,inactive,46.4,388.9563481999794,390.6409114000853,57.000000000000014,1.664,,,,,,,,,,,,,,,,,,,,,,,,,,,,,,,,,,,,,,sub-019,46.4,44.1,47.35,COM3,2024-02-08_12h34.51.844,2024_RDpaindiscrimination_maintask,2023.2.3,59.993400703609076,2024-02-08 12h35.15.102135 -0500,
0,0,0,0,14,0,14,0,,,,,,,,,,,,,390.6556054999819,,,,,,,,390.6417092999909,395.63913360005245,395.6391400999855,395.6556043000892,407.67240350006614,407.6395200000843,2,active,44.1,407.639665100025,410.55907299998216,5.500000000000094,2.9,,,,,,,,,,,,,,,,,,,,,,,,,,,,,,,,,,,,,,sub-019,46.4,44.1,47.35,COM3,2024-02-08_12h34.51.844,2024_RDpaindiscrimination_maintask,2023.2.3,59.993400703609076,2024-02-08 12h35.15.102135 -0500,
0,0,0,0,15,0,15,0,,,,,,,,,,,,,410.5724670999916,,,,,,,,410.55984460003674,415.5559997999808,415.556010600063,415.5725003000116,427.5893545000581,427.5565186000895,3,active,44.1,427.5566611000104,430.5246838000603,9.000000000000131,2.949,,,,,,,,,,,,,,,,,,,,,,,,,,,,,,,,,,,,,,sub-019,46.4,44.1,47.35,COM3,2024-02-08_12h34.51.844,2024_RDpaindiscrimination_maintask,2023.2.3,59.993400703609076,2024-02-08 12h35.15.102135 -0500,
0,0,0,0,,,,,0,0,0,0,0,0,0,0,,,,,445.6561779000331,,,,,,444.4069776000688,445.6397736000363,,,,,,,0,active,46.4,462.6400430999929,465.22471660003066,41.00000000000003,2.566,430.52521510003135,430.5393991000019,444.40662270004395,445.6400824000593,450.63972740003373,450.63973410008475,450.65620359999593,462.6729987000581,462.6400348000461,,,,,,,,,,,,,,,,,,,,,,,,,,,,,sub-019,46.4,44.1,47.35,COM3,2024-02-08_12h34.51.844,2024_RDpaindiscrimination_maintask,2023.2.3,59.993400703609076,2024-02-08 12h35.15.102135 -0500,
0,0,0,0,,,,,0,0,0,0,1,0,1,0,,,,,465.2397609000327,,,,,,,,,,,,,,1,inactive,46.4,482.2238014000468,484.72583850007504,52.499999999999886,2.483,,,,465.22552390000783,470.22332160000224,470.22332860005554,470.23986040009186,482.25662770005874,482.22379349998664,,,,,,,,,,,,,,,,,,,,,,,,,,,,,sub-019,46.4,44.1,47.35,COM3,2024-02-08_12h34.51.844,2024_RDpaindiscrimination_maintask,2023.2.3,59.993400703609076,2024-02-08 12h35.15.102135 -0500,
0,0,0,0,,,,,0,0,0,0,,,,,0,0,0,0,487.64003810007125,,,,,,,,,,,,,,2,inactive,,,,,,,,,,,,,,,484.72639940003864,487.62362970004324,487.6239398000762,492.6235995000461,492.623606499983,492.6400260999799,500.62351020006463,500.62351020006463,503.59020920004696,503.62354270007927,503.62354270007927,503.60706160007976,3.88,4.92,388,492,8,1.2,0.75,pic-absent,0,m,0.6035523000173271,None,,,,,sub-019,46.4,44.1,47.35,COM3,2024-02-08_12h34.51.844,2024_RDpaindiscrimination_maintask,2023.2.3,59.993400703609076,2024-02-08 12h35.15.102135 -0500,
0,0,0,0,,,,,0,0,0,0,,,,,1,0,1,0,503.62354270007927,,,,,,,,,,,,,,3,active,,,,,,,,,,,,,,,,,503.6077158000553,508.6070892000571,508.6070960999932,508.6236094000051,516.6070206000004,516.6070206000004,519.5737336000893,519.6070636999793,519.6070636999793,519.5906304999953,4.27,4.53,426,453,8,1.2,0.75,pic-present,1,n,0.5642645999323577,None,,,,,sub-019,46.4,44.1,47.35,COM3,2024-02-08_12h34.51.844,2024_RDpaindiscrimination_maintask,2023.2.3,59.993400703609076,2024-02-08 12h35.15.102135 -0500,
0,0,0,0,,,,,0,0,0,0,,,,,2,0,2,0,519.6070636999793,,,,,,,,,,,,,,0,inactive,,,,,,,,,,,,,,,,,519.5911298000719,524.590619500028,524.5906270000851,524.6071148000192,532.5905419000192,532.5905419000192,535.557295500068,535.590582300094,535.590582300094,535.5740850000875,3.53,5.27,353,527,8,1.2,0.75,pic-absent,0,m,0.5231102999532595,None,,,,,sub-019,46.4,44.1,47.35,COM3,2024-02-08_12h34.51.844,2024_RDpaindiscrimination_maintask,2023.2.3,59.993400703609076,2024-02-08 12h35.15.102135 -0500,
0,0,0,0,,,,,0,0,0,0,,,,,3,0,3,0,535.590582300094,,,,,,,,,,,,,,1,active,,,,,,,,,,,,,,,,,535.5745664000278,540.5741644999944,540.574172200053,540.5906294999877,548.574071399984,548.574071399984,551.5407704000827,551.5741319999797,551.5741319999797,551.557624100009,3.97,4.83,397,483,8,1.2,0.75,pic-absent,0,m,0.5796984999906272,None,,,,,sub-019,46.4,44.1,47.35,COM3,2024-02-08_12h34.51.844,2024_RDpaindiscrimination_maintask,2023.2.3,59.993400703609076,2024-02-08 12h35.15.102135 -0500,
0,0,0,0,,,,,1,0,1,0,0,0,0,0,,,,,552.9742592000403,,,,,,551.5581255999859,552.9577411999926,,,,,,,2,inactive,46.4,569.9581100000069,571.7428081000689,54.99999999999994,1.766,,,,552.958049000008,557.9577022000449,557.9577096999856,557.9741301999893,569.9909805000061,569.9581010000547,,,,,,,,,,,,,,,,,,,,,,,,,,,,,sub-019,46.4,44.1,47.35,COM3,2024-02-08_12h34.51.844,2024_RDpaindiscrimination_maintask,2023.2.3,59.993400703609076,2024-02-08 12h35.15.102135 -0500,
0,0,0,0,,,,,1,0,1,0,1,0,1,0,,,,,571.7576660000486,,,,,,,,,,,,,,3,active,46.4,588.7417898999993,592.0601407000795,21.000000000000174,3.24,,,,571.7435706000542,576.7412296000402,576.7412368000951,576.7577005000785,588.8245273000794,588.7417813000502,,,,,,,,,,,,,,,,,,,,,,,,,,,,,sub-019,46.4,44.1,47.35,COM3,2024-02-08_12h34.51.844,2024_RDpaindiscrimination_maintask,2023.2.3,59.993400703609076,2024-02-08 12h35.15.102135 -0500,
0,0,0,0,,,,,1,0,1,0,,,,,0,0,0,0,594.8912742000539,,,,,,,,,,,,,,0,inactive,,,,,,,,,,,,,,,592.0607136000181,594.8749574000249,594.8752947000321,599.8748240000568,599.8748305999907,599.8913807000499,607.8747261000099,607.8747261000099,610.8414257999975,610.874758800026,610.874758800026,610.8582652000478,4.22,4.58,422,458,8,1.2,0.75,pic-present,1,n,0.4033113999757916,None,,,,,sub-019,46.4,44.1,47.35,COM3,2024-02-08_12h34.51.844,2024_RDpaindiscrimination_maintask,2023.2.3,59.993400703609076,2024-02-08 12h35.15.102135 -0500,
0,0,0,0,,,,,1,0,1,0,,,,,1,0,1,0,610.874758800026,,,,,,,,,,,,,,1,active,,,,,,,,,,,,,,,,,610.8588170000585,615.8583389000269,615.8583463000832,615.8748089000583,623.8582408000948,623.8582408000948,626.8249658000423,626.8582759000128,626.8582759000128,626.8417902000947,3.79,5.01,379,501,8,1.2,0.75,pic-absent,0,m,0.3673103000037372,None,,,,,sub-019,46.4,44.1,47.35,COM3,2024-02-08_12h34.51.844,2024_RDpaindiscrimination_maintask,2023.2.3,59.993400703609076,2024-02-08 12h35.15.102135 -0500,
0,0,0,0,,,,,1,0,1,0,,,,,2,0,2,0,626.8582759000128,,,,,,,,,,,,,,2,active,,,,,,,,,,,,,,,,,626.842279799981,631.8418431000318,631.8418507000897,631.8583328999812,639.8418112000218,639.8418112000218,642.8084628999932,642.8417984000407,642.8417984000407,642.8253845000872,4.57,4.23,457,423,8,1.2,0.75,pic-absent,0,m,0.5604162999661639,None,,,,,sub-019,46.4,44.1,47.35,COM3,2024-02-08_12h34.51.844,2024_RDpaindiscrimination_maintask,2023.2.3,59.993400703609076,2024-02-08 12h35.15.102135 -0500,
0,0,0,0,,,,,1,0,1,0,,,,,3,0,3,0,642.8417984000407,,,,,,,,,,,,,,3,inactive,,,,,,,,,,,,,,,,,642.8258507000282,647.8253555999836,647.8253636000445,647.8418466000585,655.8252810999984,655.8252810999984,658.7919760000659,658.8253161000321,658.8253161000321,658.808906899998,4.59,4.21,459,421,8,1.2,0.75,pic-present,1,n,0.425961900036782,None,,,,,sub-019,46.4,44.1,47.35,COM3,2024-02-08_12h34.51.844,2024_RDpaindiscrimination_maintask,2023.2.3,59.993400703609076,2024-02-08 12h35.15.102135 -0500,
0,0,0,0,,,,,2,0,2,0,0,0,0,0,,,,,661.7087711000349,,,,,,658.8093947999878,661.6923598999856,,,,,,,0,active,46.4,678.6927423999878,682.0620432000142,22.500000000000206,3.351,,,,661.6926605000626,666.6924241000088,666.6924312000629,666.7087893000571,678.7256825000513,678.6927337000379,,,,,,,,,,,,,,,,,,,,,,,,,,,,,sub-019,46.4,44.1,47.35,COM3,2024-02-08_12h34.51.844,2024_RDpaindiscrimination_maintask,2023.2.3,59.993400703609076,2024-02-08 12h35.15.102135 -0500,
0,0,0,0,,,,,2,0,2,0,1,0,1,0,,,,,682.0757150000427,,,,,,,,,,,,,,1,inactive,46.4,699.059582100017,702.6280745000113,39.000000000000014,3.549,,,,682.0628090000246,687.0592764000176,687.0592839000747,687.0756927999901,699.0925748000154,699.0595737000694,,,,,,,,,,,,,,,,,,,,,,,,,,,,,sub-019,46.4,44.1,47.35,COM3,2024-02-08_12h34.51.844,2024_RDpaindiscrimination_maintask,2023.2.3,59.993400703609076,2024-02-08 12h35.15.102135 -0500,
0,0,0,0,,,,,2,0,2,0,,,,,0,0,0,0,705.0926468999824,,,,,,,,,,,,,,2,active,,,,,,,,,,,,,,,702.6286033000797,705.0763677000068,705.0766720999964,710.0762153000105,710.0762236000737,710.0927030000603,718.0761572000338,718.0761572000338,721.0428361999802,721.0761629000772,721.0761629000772,721.0596815000754,4.48,4.32,448,432,8,1.2,0.75,pic-present,1,n,0.4264059999259189,None,,,,,sub-019,46.4,44.1,47.35,COM3,2024-02-08_12h34.51.844,2024_RDpaindiscrimination_maintask,2023.2.3,59.993400703609076,2024-02-08 12h35.15.102135 -0500,
0,0,0,0,,,,,2,0,2,0,,,,,1,0,1,0,721.0761629000772,,,,,,,,,,,,,,3,inactive,,,,,,,,,,,,,,,,,721.0602357999887,726.0597276000772,726.0597352000186,726.076144700055,734.0596544999862,734.0596544999862,737.0263727999991,737.059696600074,737.059696600074,737.0431980000576,4.08,4.72,408,472,8,1.2,0.75,pic-absent,0,m,0.3902060999535024,None,,,,,sub-019,46.4,44.1,47.35,COM3,2024-02-08_12h34.51.844,2024_RDpaindiscrimination_maintask,2023.2.3,59.993400703609076,2024-02-08 12h35.15.102135 -0500,
0,0,0,0,,,,,2,0,2,0,,,,,2,0,2,0,737.059696600074,,,,,,,,,,,,,,0,active,,,,,,,,,,,,,,,,,737.0436595000792,742.0431947000325,742.0432018000865,742.0597505000187,750.0431901999982,750.0431901999982,753.0098872000817,753.0432044999907,753.0432044999907,753.0266766999848,4.69,4.11,469,411,8,1.2,0.75,pic-present,1,n,0.44360040000174195,None,,,,,sub-019,46.4,44.1,47.35,COM3,2024-02-08_12h34.51.844,2024_RDpaindiscrimination_maintask,2023.2.3,59.993400703609076,2024-02-08 12h35.15.102135 -0500,
0,0,0,0,,,,,2,0,2,0,,,,,3,0,3,0,753.0432044999907,,,,,,,,,,,,,,1,inactive,,,,,,,,,,,,,,,,,753.0272064000601,758.0267590000294,758.0267665000865,758.0431847000727,766.0266883000731,766.0266883000731,768.9933991000289,769.0267290000338,769.0267290000338,769.0102576999925,3.36,5.44,336,544,8,1.2,0.75,pic-absent,0,m,0.4512057000538334,None,,,,,sub-019,46.4,44.1,47.35,COM3,2024-02-08_12h34.51.844,2024_RDpaindiscrimination_maintask,2023.2.3,59.993400703609076,2024-02-08 12h35.15.102135 -0500,
0,0,0,0,,,,,3,0,3,0,0,0,0,0,,,,,770.8934234000044,,,,,,769.0107988000382,770.8770421000663,,,,,,,2,inactive,46.4,787.8773926000576,790.0799102000892,38.00000000000008,2.184,,,,770.8773543999996,775.8770554000512,775.8770618999843,775.8933906999882,787.9102880000137,787.8773839999922,,,,,,,,,,,,,,,,,,,,,,,,,,,,,sub-019,46.4,44.1,47.35,COM3,2024-02-08_12h34.51.844,2024_RDpaindiscrimination_maintask,2023.2.3,59.993400703609076,2024-02-08 12h35.15.102135 -0500,
0,0,0,0,,,,,3,0,3,0,1,0,1,0,,,,,790.0937124000629,,,,,,,,,,,,,,3,active,46.4,807.0776699000271,809.8452377000358,42.500000000000135,2.748,,,,790.080643500085,795.0771472000051,795.0771541000577,795.0936577999964,807.1105109000346,807.0776620000834,,,,,,,,,,,,,,,,,,,,,,,,,,,,,sub-019,46.4,44.1,47.35,COM3,2024-02-08_12h34.51.844,2024_RDpaindiscrimination_maintask,2023.2.3,59.993400703609076,2024-02-08 12h35.15.102135 -0500,
0,0,0,0,,,,,3,0,3,0,,,,,0,0,0,0,811.8771547999931,,,,,,,,,,,,,,0,active,,,,,,,,,,,,,,,809.8457658999832,811.8609173999866,811.8612365000881,816.8606705000857,816.8606779000256,816.8771665000822,824.8605861000251,824.8605861000251,827.8272991999984,827.8606251000892,827.8606251000892,827.8441919999896,3.39,5.41,339,541,8,1.2,0.75,pic-absent,0,m,0.5422347999410704,None,,,,,sub-019,46.4,44.1,47.35,COM3,2024-02-08_12h34.51.844,2024_RDpaindiscrimination_maintask,2023.2.3,59.993400703609076,2024-02-08 12h35.15.102135 -0500,
0,0,0,0,,,,,3,0,3,0,,,,,1,0,1,0,827.8606251000892,,,,,,,,,,,,,,1,inactive,,,,,,,,,,,,,,,,,827.8448038999923,832.8441767999902,832.8441841000458,832.8606862000888,840.8441114000743,840.8441114000743,843.8108521000249,843.8441822000314,843.8441822000314,843.8277007000288,3.95,4.85,395,484,8,1.2,0.75,pic-present,1,n,0.35801720002200454,None,,,,,sub-019,46.4,44.1,47.35,COM3,2024-02-08_12h34.51.844,2024_RDpaindiscrimination_maintask,2023.2.3,59.993400703609076,2024-02-08 12h35.15.102135 -0500,
0,0,0,0,,,,,3,0,3,0,,,,,2,0,2,0,843.8441822000314,,,,,,,,,,,,,,2,inactive,,,,,,,,,,,,,,,,,843.8281583000207,848.8277308000252,848.8277379000792,848.8441943000071,856.8276191999903,856.8276191999903,859.7943341000937,859.8276637999807,859.8276637999807,859.81118040008,4.66,4.14,466,413,8,1.2,0.75,pic-present,1,n,0.46200559998396784,None,,,,,sub-019,46.4,44.1,47.35,COM3,2024-02-08_12h34.51.844,2024_RDpaindiscrimination_maintask,2023.2.3,59.993400703609076,2024-02-08 12h35.15.102135 -0500,
0,0,0,0,,,,,3,0,3,0,,,,,3,0,3,0,859.8276637999807,,,,,,,,,,,,,,3,active,,,,,,,,,,,,,,,,,859.8116635000333,864.8112652000273,864.8112727000844,864.8278371000197,872.8111877000192,872.8111877000192,875.7779206000268,875.8111859000055,875.8111859000055,875.7947406000458,4.54,4.26,454,426,8,1.2,0.75,pic-present,1,n,0.42227049998473376,None,,,,,sub-019,46.4,44.1,47.35,COM3,2024-02-08_12h34.51.844,2024_RDpaindiscrimination_maintask,2023.2.3,59.993400703609076,2024-02-08 12h35.15.102135 -0500,
1,0,1,0,0,0,0,0,,,,,,,,,,,,,940.745280400035,,,,936.9623156000162,939.4955095000332,939.4955166000873,940.728858300019,940.7291566000786,945.7288377999794,945.7288452000357,945.745334599982,957.7621156000532,957.7293022000231,0,active,44.1,957.7295188000426,962.0817490000045,5.000000000000067,4.329,,,,,,,,,,,,,,,,,,,,,,,,,,,,,,,,,,875.7951689000474,936.9621886999812,,,sub-019,46.4,44.1,47.35,COM3,2024-02-08_12h34.51.844,2024_RDpaindiscrimination_maintask,2023.2.3,59.993400703609076,2024-02-08 12h35.15.102135 -0500,
1,0,1,0,1,0,1,0,,,,,,,,,,,,,962.0955707000103,,,,,,,,962.0826397000346,967.0791936999885,967.0792003000388,967.0955924000591,979.1123675000854,979.0794913000427,1,inactive,46.4,979.0796345000854,981.5648227999918,47.999999999999936,2.466,,,,,,,,,,,,,,,,,,,,,,,,,,,,,,,,,,,,,,sub-019,46.4,44.1,47.35,COM3,2024-02-08_12h34.51.844,2024_RDpaindiscrimination_maintask,2023.2.3,59.993400703609076,2024-02-08 12h35.15.102135 -0500,
1,0,1,0,2,0,2,0,,,,,,,,,,,,,981.5790926000336,,,,,,,,981.5655760000227,986.5626536000054,986.5626607000595,986.5791565000545,998.5960400000913,998.5631095999852,2,active,44.1,998.5632542000385,1000.8481053999858,6.500000000000023,2.266,,,,,,,,,,,,,,,,,,,,,,,,,,,,,,,,,,,,,,sub-019,46.4,44.1,47.35,COM3,2024-02-08_12h34.51.844,2024_RDpaindiscrimination_maintask,2023.2.3,59.993400703609076,2024-02-08 12h35.15.102135 -0500,
1,0,1,0,3,0,3,0,,,,,,,,,,,,,1000.8626580000855,,,,,,,,1000.8488774000434,1005.846301499987,1005.8463072000304,1005.8627416000236,1017.8795006000437,1017.8468687999994,3,inactive,46.4,1017.8470204999903,1020.86618370004,49.00000000000007,3.0,,,,,,,,,,,,,,,,,,,,,,,,,,,,,,,,,,,,,,sub-019,46.4,44.1,47.35,COM3,2024-02-08_12h34.51.844,2024_RDpaindiscrimination_maintask,2023.2.3,59.993400703609076,2024-02-08 12h35.15.102135 -0500,
1,0,1,0,4,0,4,0,,,,,,,,,,,,,1020.8795961000724,,,,,,,,1020.8669379000785,1025.8631544000236,1025.8631609000731,1025.8796179000055,1037.8964529000223,1037.8635985000292,0,inactive,46.4,1037.8637555000605,1039.5649537000572,54.00000000000002,1.682,,,,,,,,,,,,,,,,,,,,,,,,,,,,,,,,,,,,,,sub-019,46.4,44.1,47.35,COM3,2024-02-08_12h34.51.844,2024_RDpaindiscrimination_maintask,2023.2.3,59.993400703609076,2024-02-08 12h35.15.102135 -0500,
1,0,1,0,5,0,5,0,,,,,,,,,,,,,1039.5798243000172,,,,,,,,1039.565714700031,1044.5634264000691,1044.5634328000015,1044.5798450000584,1056.5966586000286,1056.5638216000516,1,active,44.1,1056.5639729000395,1058.265814100043,5.4999999999999964,1.683,,,,,,,,,,,,,,,,,,,,,,,,,,,,,,,,,,,,,,sub-019,46.4,44.1,47.35,COM3,2024-02-08_12h34.51.844,2024_RDpaindiscrimination_maintask,2023.2.3,59.993400703609076,2024-02-08 12h35.15.102135 -0500,
1,0,1,0,6,0,6,0,,,,,,,,,,,,,1058.2799982000142,,,,,,,,1058.2660506999819,1063.2635878000874,1063.2635943000205,1063.2800816000672,1075.2968994000694,1075.2640912000788,2,inactive,46.4,1075.2642345000058,1078.1493720000144,45.999999999999915,2.866,,,,,,,,,,,,,,,,,,,,,,,,,,,,,,,,,,,,,,sub-019,46.4,44.1,47.35,COM3,2024-02-08_12h34.51.844,2024_RDpaindiscrimination_maintask,2023.2.3,59.993400703609076,2024-02-08 12h35.15.102135 -0500,
1,0,1,0,7,0,7,0,,,,,,,,,,,,,1078.1636179999914,,,,,,,,1078.1501869000494,1083.1472753999988,1083.1472815000452,1083.1636136000743,1095.1804454000667,1095.1476631000405,3,active,44.1,1095.1478048000718,1098.7836359000066,4.500000000000164,3.617,,,,,,,,,,,,,,,,,,,,,,,,,,,,,,,,,,,,,,sub-019,46.4,44.1,47.35,COM3,2024-02-08_12h34.51.844,2024_RDpaindiscrimination_maintask,2023.2.3,59.993400703609076,2024-02-08 12h35.15.102135 -0500,
1,0,1,0,8,0,8,0,,,,,,,,,,,,,1098.7971823000116,,,,,,,,1098.7844008000102,1103.780752700055,1103.7807593999896,1103.7971980000148,1115.8140263999812,1115.7811718999874,0,active,44.1,1115.7813240999822,1117.900126200053,7.50000000000006,2.1,,,,,,,,,,,,,,,,,,,,,,,,,,,,,,,,,,,,,,sub-019,46.4,44.1,47.35,COM3,2024-02-08_12h34.51.844,2024_RDpaindiscrimination_maintask,2023.2.3,59.993400703609076,2024-02-08 12h35.15.102135 -0500,
1,0,1,0,9,0,9,0,,,,,,,,,,,,,1117.9141058999812,,,,,,,,1117.9010271000443,1122.8976354000624,1122.897642099997,1122.91408830008,1134.930920700077,1134.8980340000708,1,inactive,46.4,1134.8981784000061,1137.2180228000507,53.50000000000006,2.301,,,,,,,,,,,,,,,,,,,,,,,,,,,,,,,,,,,,,,sub-019,46.4,44.1,47.35,COM3,2024-02-08_12h34.51.844,2024_RDpaindiscrimination_maintask,2023.2.3,59.993400703609076,2024-02-08 12h35.15.102135 -0500,
1,0,1,0,10,0,10,0,,,,,,,,,,,,,1137.2309984000167,,,,,,,,1137.2188828000799,1142.214482499985,1142.2144890000345,1142.2309414000483,1154.2478248000843,1154.2149076000787,2,inactive,46.4,1154.2150531000225,1156.867912100046,54.49999999999988,2.634,,,,,,,,,,,,,,,,,,,,,,,,,,,,,,,,,,,,,,sub-019,46.4,44.1,47.35,COM3,2024-02-08_12h34.51.844,2024_RDpaindiscrimination_maintask,2023.2.3,59.993400703609076,2024-02-08 12h35.15.102135 -0500,
1,0,1,0,11,0,11,0,,,,,,,,,,,,,1156.881214400055,,,,,,,,1156.8687027000124,1161.8647109000012,1161.8647179000545,1161.8811781000113,1173.8980087999953,1173.8653226000024,3,active,44.1,1173.8654655000428,1175.701161300065,6.999999999999997,1.817,,,,,,,,,,,,,,,,,,,,,,,,,,,,,,,,,,,,,,sub-019,46.4,44.1,47.35,COM3,2024-02-08_12h34.51.844,2024_RDpaindiscrimination_maintask,2023.2.3,59.993400703609076,2024-02-08 12h35.15.102135 -0500,
1,0,1,0,12,0,12,0,,,,,,,,,,,,,1175.7147514000535,,,,,,,,1175.7019238000503,1180.6982805000152,1180.6982867000625,1180.7147647000384,1192.7316874000244,1192.6990078000817,0,inactive,46.4,1192.6991557000438,1195.1499192999909,48.9999999999999,2.432,,,,,,,,,,,,,,,,,,,,,,,,,,,,,,,,,,,,,,sub-019,46.4,44.1,47.35,COM3,2024-02-08_12h34.51.844,2024_RDpaindiscrimination_maintask,2023.2.3,59.993400703609076,2024-02-08 12h35.15.102135 -0500,
1,0,1,0,13,0,13,0,,,,,,,,,,,,,1195.1650553999934,,,,,,,,1195.1506997999968,1200.1485987000633,1200.1486054999987,1200.1649971000152,1212.1819012000924,1212.1490500000073,1,active,44.1,1212.149192300043,1215.3017277000472,12.000000000000135,3.133,,,,,,,,,,,,,,,,,,,,,,,,,,,,,,,,,,,,,,sub-019,46.4,44.1,47.35,COM3,2024-02-08_12h34.51.844,2024_RDpaindiscrimination_maintask,2023.2.3,59.993400703609076,2024-02-08 12h35.15.102135 -0500,
1,0,1,0,14,0,14,0,,,,,,,,,,,,,1215.3152835000074,,,,,,,,1215.302456800011,1220.2988494000165,1220.2988564000698,1220.3152513999958,1232.3321565000806,1232.2992846000707,2,active,44.1,1232.2994291000068,1235.6851772000082,10.000000000000169,3.367,,,,,,,,,,,,,,,,,,,,,,,,,,,,,,,,,,,,,,sub-019,46.4,44.1,47.35,COM3,2024-02-08_12h34.51.844,2024_RDpaindiscrimination_maintask,2023.2.3,59.993400703609076,2024-02-08 12h35.15.102135 -0500,
1,0,1,0,15,0,15,0,,,,,,,,,,,,,1235.6988641000353,,,,,,,,1235.6859774000477,1240.6824351000832,1240.6824420000194,1240.6988359000534,1252.7156901999842,1252.6828452000627,3,inactive,46.4,1252.6829945000354,1254.9009403000819,51.00000000000003,2.199,,,,,,,,,,,,,,,,,,,,,,,,,,,,,,,,,,,,,,sub-019,46.4,44.1,47.35,COM3,2024-02-08_12h34.51.844,2024_RDpaindiscrimination_maintask,2023.2.3,59.993400703609076,2024-02-08 12h35.15.102135 -0500,
1,0,1,0,,,,,0,0,0,0,0,0,0,0,,,,,1265.9324156000512,,,,,,1264.4996738000773,1265.91603209998,,,,,,,0,inactive,46.4,1282.916460599983,1284.801689999993,51.49999999999992,1.867,1254.9015055000782,1254.9157557000872,1264.499341399991,1265.9163230999839,1270.9159836000763,1270.9159910000162,1270.932476200047,1282.9492917000316,1282.916451600031,,,,,,,,,,,,,,,,,,,,,,,,,,,,,sub-019,46.4,44.1,47.35,COM3,2024-02-08_12h34.51.844,2024_RDpaindiscrimination_maintask,2023.2.3,59.993400703609076,2024-02-08 12h35.15.102135 -0500,
1,0,1,0,,,,,0,0,0,0,1,0,1,0,,,,,1284.8160991000477,,,,,,,,,,,,,,1,active,46.4,1301.799943100079,1304.185479399981,41.49999999999993,2.366,,,,1284.8024476000573,1289.799539300031,1289.79954789998,1289.8160299999872,1301.832843500073,1301.7999349000165,,,,,,,,,,,,,,,,,,,,,,,,,,,,,sub-019,46.4,44.1,47.35,COM3,2024-02-08_12h34.51.844,2024_RDpaindiscrimination_maintask,2023.2.3,59.993400703609076,2024-02-08 12h35.15.102135 -0500,
1,0,1,0,,,,,0,0,0,0,,,,,0,0,0,0,1306.6663721000077,,,,,,,,,,,,,,2,active,,,,,,,,,,,,,,,1304.1860072000418,1306.649989000056,1306.6503279000754,1311.6499137000646,1311.649920900003,1311.6663511000806,1319.6498571999837,1319.6498571999837,1322.61645890004,1322.6497861000244,1322.6497861000244,1322.6333067000378,4.48,4.32,448,432,8,1.2,0.75,pic-absent,0,m,0.5154851999832317,None,,,,,sub-019,46.4,44.1,47.35,COM3,2024-02-08_12h34.51.844,2024_RDpaindiscrimination_maintask,2023.2.3,59.993400703609076,2024-02-08 12h35.15.102135 -0500,
1,0,1,0,,,,,0,0,0,0,,,,,1,0,1,0,1322.6497861000244,,,,,,,,,,,,,,3,inactive,,,,,,,,,,,,,,,,,1322.6338435000507,1327.6333857000573,1327.6333935000002,1327.649834800046,1335.6333359000273,1335.6333359000273,1338.599980900064,1338.633314799983,1338.633314799983,1338.6168109000428,3.63,5.17,363,517,8,1.2,0.75,pic-absent,0,m,0.6208170999307185,None,,,,,sub-019,46.4,44.1,47.35,COM3,2024-02-08_12h34.51.844,2024_RDpaindiscrimination_maintask,2023.2.3,59.993400703609076,2024-02-08 12h35.15.102135 -0500,
1,0,1,0,,,,,0,0,0,0,,,,,2,0,2,0,1338.633314799983,,,,,,,,,,,,,,0,active,,,,,,,,,,,,,,,,,1338.6172725000652,1343.616864199983,1343.61687170004,1343.6333622999955,1351.6168329000939,1351.6168329000939,1354.583488100092,1354.616827000049,1354.616827000049,1354.6003438000334,4.14,4.66,413,466,8,1.2,0.75,pic-present,1,n,0.5371692000189796,None,,,,,sub-019,46.4,44.1,47.35,COM3,2024-02-08_12h34.51.844,2024_RDpaindiscrimination_maintask,2023.2.3,59.993400703609076,2024-02-08 12h35.15.102135 -0500,
1,0,1,0,,,,,0,0,0,0,,,,,3,0,3,0,1354.616827000049,,,,,,,,,,,,,,1,inactive,,,,,,,,,,,,,,,,,1354.600814400008,1359.6003940000664,1359.6004018000094,1359.6168872000417,1367.6003598000389,1367.6003598000389,1370.567012900021,1370.6003596000373,1370.6003596000373,1370.583861400024,4.06,4.74,405,474,8,1.2,0.75,pic-absent,0,m,2.285056099994108,None,,,,,sub-019,46.4,44.1,47.35,COM3,2024-02-08_12h34.51.844,2024_RDpaindiscrimination_maintask,2023.2.3,59.993400703609076,2024-02-08 12h35.15.102135 -0500,
1,0,1,0,,,,,1,0,1,0,0,0,0,0,,,,,1373.2003964000614,,,,,,1370.584461200051,1373.1840025000274,,,,,,,2,active,46.4,1390.1843778000912,1392.9354696000228,43.5,2.732,,,,1373.1843227000209,1378.1839610000607,1378.1839689000044,1378.2004131000722,1390.217241800041,1390.184369100025,,,,,,,,,,,,,,,,,,,,,,,,,,,,,sub-019,46.4,44.1,47.35,COM3,2024-02-08_12h34.51.844,2024_RDpaindiscrimination_maintask,2023.2.3,59.993400703609076,2024-02-08 12h35.15.102135 -0500,
1,0,1,0,,,,,1,0,1,0,1,0,1,0,,,,,1392.9505987000884,,,,,,,,,,,,,,3,inactive,46.4,1409.934713200084,1413.0859922000673,50.49999999999989,3.132,,,,1392.9362072000513,1397.9341387000168,1397.9341462000739,1397.9506044000154,1409.9674481999828,1409.9347050000215,,,,,,,,,,,,,,,,,,,,,,,,,,,,,sub-019,46.4,44.1,47.35,COM3,2024-02-08_12h34.51.844,2024_RDpaindiscrimination_maintask,2023.2.3,59.993400703609076,2024-02-08 12h35.15.102135 -0500,
1,0,1,0,,,,,1,0,1,0,,,,,0,0,0,0,1415.2342112000333,,,,,,,,,,,,,,0,inactive,,,,,,,,,,,,,,,1413.0865590000758,1415.2178068000358,1415.2181323000696,1420.217750000069,1420.2177572000073,1420.2342364999931,1428.2176889000693,1428.2176889000693,1431.1843994000228,1431.2177310000407,1431.2177310000407,1431.201258199988,4.2,4.6,420,459,8,1.2,0.75,pic-present,1,n,0.3244036000687629,None,,,,,sub-019,46.4,44.1,47.35,COM3,2024-02-08_12h34.51.844,2024_RDpaindiscrimination_maintask,2023.2.3,59.993400703609076,2024-02-08 12h35.15.102135 -0500,
1,0,1,0,,,,,1,0,1,0,,,,,1,0,1,0,1431.2177310000407,,,,,,,,,,,,,,1,active,,,,,,,,,,,,,,,,,1431.2017939999932,1436.2012381000677,1436.2012453000061,1436.2177474000491,1444.2011789000826,1444.2011789000826,1447.1678704000078,1447.201209800085,1447.201209800085,1447.1847979000304,3.8,5.0,380,500,8,1.2,0.75,pic-absent,0,m,0.4806650000391528,None,,,,,sub-019,46.4,44.1,47.35,COM3,2024-02-08_12h34.51.844,2024_RDpaindiscrimination_maintask,2023.2.3,59.993400703609076,2024-02-08 12h35.15.102135 -0500,
1,0,1,0,,,,,1,0,1,0,,,,,2,0,2,0,1447.201209800085,,,,,,,,,,,,,,2,inactive,,,,,,,,,,,,,,,,,1447.1852472000755,1452.1847939,1452.1848009000532,1452.201298900065,1460.1846981000854,1460.1846981000854,1463.1513937000418,1463.1847257000627,1463.1847257000627,1463.168288200046,4.33,4.47,433,447,8,1.2,0.75,pic-absent,0,m,0.4890141000505537,None,,,,,sub-019,46.4,44.1,47.35,COM3,2024-02-08_12h34.51.844,2024_RDpaindiscrimination_maintask,2023.2.3,59.993400703609076,2024-02-08 12h35.15.102135 -0500,
1,0,1,0,,,,,1,0,1,0,,,,,3,0,3,0,1463.1847257000627,,,,,,,,,,,,,,3,active,,,,,,,,,,,,,,,,,1463.168767400086,1468.168316300027,1468.1683236000827,1468.18478780007,1476.1682859000284,1476.1682859000284,1479.134940000018,1479.1682598000625,1479.1682598000625,1479.1517725000158,4.62,4.18,462,418,8,1.2,0.75,pic-present,1,n,0.4015245999908075,None,,,,,sub-019,46.4,44.1,47.35,COM3,2024-02-08_12h34.51.844,2024_RDpaindiscrimination_maintask,2023.2.3,59.993400703609076,2024-02-08 12h35.15.102135 -0500,
1,0,1,0,,,,,2,0,2,0,0,0,0,0,,,,,1481.13494550006,,,,,,1479.1522507000482,1481.118581000017,,,,,,,0,active,46.4,1498.1189594999887,1500.8880839000922,33.50000000000013,2.75,,,,1481.1188858000096,1486.1184964000713,1486.1185030000051,1486.1350051000481,1498.1518038000213,1498.1189488000236,,,,,,,,,,,,,,,,,,,,,,,,,,,,,sub-019,46.4,44.1,47.35,COM3,2024-02-08_12h34.51.844,2024_RDpaindiscrimination_maintask,2023.2.3,59.993400703609076,2024-02-08 12h35.15.102135 -0500,
1,0,1,0,,,,,2,0,2,0,1,0,1,0,,,,,1500.901901800069,,,,,,,,,,,,,,1,inactive,46.4,1517.8857772999909,1519.8040669000475,44.499999999999986,1.899,,,,1500.8888191999868,1505.8855091000441,1505.8855158999795,1505.9019417000236,1517.9187352000736,1517.8857693000464,,,,,,,,,,,,,,,,,,,,,,,,,,,,,sub-019,46.4,44.1,47.35,COM3,2024-02-08_12h34.51.844,2024_RDpaindiscrimination_maintask,2023.2.3,59.993400703609076,2024-02-08 12h35.15.102135 -0500,
1,0,1,0,,,,,2,0,2,0,,,,,0,0,0,0,1521.8021308000898,,,,,,,,,,,,,,2,inactive,,,,,,,,,,,,,,,1519.8045543000335,1521.7857785000233,1521.7860818000045,1526.7856802000897,1526.7856872000266,1526.8022090999875,1534.7856044000946,1534.7856044000946,1537.7523144000443,1537.785632800078,1537.785632800078,1537.7692855000496,4.01,4.79,401,479,8,1.2,0.75,pic-absent,0,m,0.38011619995813817,None,,,,,sub-019,46.4,44.1,47.35,COM3,2024-02-08_12h34.51.844,2024_RDpaindiscrimination_maintask,2023.2.3,59.993400703609076,2024-02-08 12h35.15.102135 -0500,
1,0,1,0,,,,,2,0,2,0,,,,,1,0,1,0,1537.785632800078,,,,,,,,,,,,,,3,active,,,,,,,,,,,,,,,,,1537.769790200051,1542.7691910000285,1542.769198300084,1542.7856708000181,1550.769179200055,1550.769179200055,1553.73587460001,1553.7691657000687,1553.7691657000687,1553.7526846000692,3.46,5.34,346,534,8,1.2,0.75,pic-present,1,n,0.3441937000025064,None,,,,,sub-019,46.4,44.1,47.35,COM3,2024-02-08_12h34.51.844,2024_RDpaindiscrimination_maintask,2023.2.3,59.993400703609076,2024-02-08 12h35.15.102135 -0500,
1,0,1,0,,,,,2,0,2,0,,,,,2,0,2,0,1553.7691657000687,,,,,,,,,,,,,,0,inactive,,,,,,,,,,,,,,,,,1553.7531652000034,1558.7527101000305,1558.7527176000876,1558.76924100006,1566.7526371000567,1566.7526371000567,1569.719358600094,1569.7526881999802,1569.7526881999802,1569.736197500024,4.35,4.45,434,445,8,1.2,0.75,pic-present,1,n,0.30935330002103,None,,,,,sub-019,46.4,44.1,47.35,COM3,2024-02-08_12h34.51.844,2024_RDpaindiscrimination_maintask,2023.2.3,59.993400703609076,2024-02-08 12h35.15.102135 -0500,
1,0,1,0,,,,,2,0,2,0,,,,,3,0,3,0,1569.7526881999802,,,,,,,,,,,,,,1,active,,,,,,,,,,,,,,,,,1569.7366547000129,1574.7362512000836,1574.7362589000259,1574.752739700023,1582.7361697000451,1582.7361697000451,1585.702875200077,1585.736221200088,1585.736221200088,1585.7197219000664,3.43,5.37,343,537,8,1.2,0.75,pic-absent,0,m,0.5977634000591934,None,,,,,sub-019,46.4,44.1,47.35,COM3,2024-02-08_12h34.51.844,2024_RDpaindiscrimination_maintask,2023.2.3,59.993400703609076,2024-02-08 12h35.15.102135 -0500,
1,0,1,0,,,,,3,0,3,0,0,0,0,0,,,,,1587.669579599984,,,,,,1585.7201930000447,1587.6532349000918,,,,,,,2,inactive,46.4,1604.6536910000723,1606.873412200017,42.999999999999986,2.201,,,,1587.6535147000104,1592.6531391000608,1592.6531462999992,1592.669553100015,1604.6864158000099,1604.653682700009,,,,,,,,,,,,,,,,,,,,,,,,,,,,,sub-019,46.4,44.1,47.35,COM3,2024-02-08_12h34.51.844,2024_RDpaindiscrimination_maintask,2023.2.3,59.993400703609076,2024-02-08 12h35.15.102135 -0500,
1,0,1,0,,,,,3,0,3,0,1,0,1,0,,,,,1606.8865025000414,,,,,,,,,,,,,,3,active,46.4,1623.8703212999972,1626.2897168000927,57.00000000000004,2.401,,,,1606.874177300022,1611.870002700016,1611.8700096000684,1611.8866281000664,1623.9032927000662,1623.8703133000527,,,,,,,,,,,,,,,,,,,,,,,,,,,,,sub-019,46.4,44.1,47.35,COM3,2024-02-08_12h34.51.844,2024_RDpaindiscrimination_maintask,2023.2.3,59.993400703609076,2024-02-08 12h35.15.102135 -0500,
1,0,1,0,,,,,3,0,3,0,,,,,0,0,0,0,1629.2700674000662,,,,,,,,,,,,,,0,active,,,,,,,,,,,,,,,1626.2902457000455,1629.2536282000365,1629.2539582999889,1634.253598600044,1634.2536056999816,1634.2700776000274,1642.2535054000327,1642.2535054000327,1645.2202042000135,1645.2535350000253,1645.2535350000253,1645.2370922000846,4.06,4.74,405,474,8,1.2,0.75,pic-present,1,n,0.3446211999980733,None,,,,,sub-019,46.4,44.1,47.35,COM3,2024-02-08_12h34.51.844,2024_RDpaindiscrimination_maintask,2023.2.3,59.993400703609076,2024-02-08 12h35.15.102135 -0500,
1,0,1,0,,,,,3,0,3,0,,,,,1,0,1,0,1645.2535350000253,,,,,,,,,,,,,,1,inactive,,,,,,,,,,,,,,,,,1645.2376255000709,1650.237089500064,1650.237096900004,1650.253623800003,1658.2370347999968,1658.2370347999968,1661.2037229000125,1661.2370586000616,1661.2370586000616,1661.2205598000437,3.94,4.86,394,486,8,1.2,0.75,pic-present,1,n,0.35668029997032136,None,,,,,sub-019,46.4,44.1,47.35,COM3,2024-02-08_12h34.51.844,2024_RDpaindiscrimination_maintask,2023.2.3,59.993400703609076,2024-02-08 12h35.15.102135 -0500,
1,0,1,0,,,,,3,0,3,0,,,,,2,0,2,0,1661.2370586000616,,,,,,,,,,,,,,2,active,,,,,,,,,,,,,,,,,1661.2210686000763,1666.2206073000561,1666.2206157000037,1666.2371719999937,1674.2206848000642,1674.2206848000642,1677.1872455000412,1677.2205875000218,1677.2205875000218,1677.204093300039,3.48,5.32,348,532,8,1.2,0.75,pic-absent,0,m,0.41351960005704314,None,,,,,sub-019,46.4,44.1,47.35,COM3,2024-02-08_12h34.51.844,2024_RDpaindiscrimination_maintask,2023.2.3,59.993400703609076,2024-02-08 12h35.15.102135 -0500,
1,0,1,0,,,,,3,0,3,0,,,,,3,0,3,0,1677.2205875000218,,,,,,,,,,,,,,3,inactive,,,,,,,,,,,,,,,,,1677.2045586000895,1682.2041310000932,1682.2041390000377,1682.2206668000435,1690.2041020999895,1690.2041020999895,1693.170889500063,1693.204209299991,1693.204209299991,1693.187734200037,3.87,4.93,387,493,8,1.2,0.75,pic-present,1,n,0.3651596000418067,None,,,,,sub-019,46.4,44.1,47.35,COM3,2024-02-08_12h34.51.844,2024_RDpaindiscrimination_maintask,2023.2.3,59.993400703609076,2024-02-08 12h35.15.102135 -0500,
,,,,,,,,,,,,,,,,,,,,,,,,,,,,,,,,,,,,,,,,,,,,,,,,,,,,,,,,,,,,,,,,,,,,,,,,,,1693.1881714999909,1698.5212613000767,1698.5212827000069,1708.5211987000657,,,,,,,,,,,
