trials.thisRepN,trials.thisTrialN,trials.thisN,trials.thisIndex,loop_test.thisRepN,loop_test.thisTrialN,loop_test.thisN,loop_test.thisIndex,loop_eval_discri.thisRepN,loop_eval_discri.thisTrialN,loop_eval_discri.thisN,loop_eval_discri.thisIndex,loop_eval.thisRepN,loop_eval.thisTrialN,loop_eval.thisN,loop_eval.thisIndex,loop_discri.thisRepN,loop_discri.thisTrialN,loop_discri.thisN,loop_discri.thisIndex,thisRow.t,notes,Set_up.started,Set_up.stopped,electrode_check.started,electrode_check.stopped,instructions_eval.started,instructions_eval.stopped,pause_5_test.started,pause_5_test.stopped,Phase_Test.started,thermode_locali.started,thermode_locali.stopped,Phase_Test.stopped,loca_thermode,condition,temp_trial_sent,eval_douleur.started,eval_douleur.stopped,ratingScale.response,ratingScale.rt,Fin_test.started,text.started,Fin_test.stopped,pause_5_EVA.started,pause_5_EVA.stopped,tâche_EVA.started,thermode_locali_EVA.started,thermode_locali_EVA.stopped,tâche_EVA.stopped,instructions_discrim.started,instructions_discrim.stopped,pause_5_pic.started,pause_5_pic.stopped,tâche_PIC.started,thermode_locali_pic.started,percu_or.started,responser.started,thermode_locali_pic.stopped,percu_or.stopped,responser.stopped,tâche_PIC.stopped,dur_plateau1,dur_plateau2,dur_plateau1_sent,dur_plateau2_sent,start_plateau_2_resp,dur_pic,dur_rise,pic_presence,pic_response,discrimin_resp.keys,discrimin_resp.rt,discrimin_resp.duration,break_entre_bloc.started,break_entre_bloc.stopped,merci.started,merci.stopped,participant,temp_flat,temp_active,temp_pic_set,com_thermode,date,expName,psychopyVersion,frameRate,expStart,
0,0,0,0,0,0,0,0,,,,,,,,,,,,,125.88768939999864,,0.003090599784627557,12.653521099826321,12.653916699811816,123.52158169983886,123.52159009990282,125.87136309989728,125.87165679992177,130.87131999991834,130.87132639996707,130.88781429990195,142.90447479998693,142.87174769979902,0,inactive,46.2,142.87196649983525,146.28950709989294,46.00000000000012,3.395,,,,,,,,,,,,,,,,,,,,,,,,,,,,,,,,,,,,,,sub-031,46.2,45.3,46.9,COM3,2024-02-22_13h06.14.102,2024_RDpaindiscrimination_maintask,2023.2.3,60.00204011283855,2024-02-22 13h06.37.550402 -0500,
0,0,0,0,1,0,1,0,,,,,,,,,,,,,146.30463999998756,,,,,,,,146.29042320000008,151.28818809986115,151.2881946999114,151.3046253998764,163.32150919991545,163.28864119993523,1,active,45.3,163.28878609999083,166.17474389984272,33.50000000000006,2.867,,,,,,,,,,,,,,,,,,,,,,,,,,,,,,,,,,,,,,sub-031,46.2,45.3,46.9,COM3,2024-02-22_13h06.14.102,2024_RDpaindiscrimination_maintask,2023.2.3,60.00204011283855,2024-02-22 13h06.37.550402 -0500,
0,0,0,0,2,0,2,0,,,,,,,,,,,,,166.18822069978341,,,,,,,,166.17557179997675,171.1717336999718,171.17174029978923,171.18821989977732,183.2050415999256,183.17230789992027,2,inactive,46.2,183.17245819978416,185.75671119987965,52.000000000000064,2.565,,,,,,,,,,,,,,,,,,,,,,,,,,,,,,,,,,,,,,sub-031,46.2,45.3,46.9,COM3,2024-02-22_13h06.14.102,2024_RDpaindiscrimination_maintask,2023.2.3,60.00204011283855,2024-02-22 13h06.37.550402 -0500,
0,0,0,0,3,0,3,0,,,,,,,,,,,,,185.77159899985418,,,,,,,,185.75725399982184,190.75522399996407,190.75523029989563,190.7716612999793,202.7884890998248,202.7556838998571,3,active,45.3,202.75583389983512,204.82312519988045,36.500000000000085,2.049,,,,,,,,,,,,,,,,,,,,,,,,,,,,,,,,,,,,,,sub-031,46.2,45.3,46.9,COM3,2024-02-22_13h06.14.102,2024_RDpaindiscrimination_maintask,2023.2.3,60.00204011283855,2024-02-22 13h06.37.550402 -0500,
0,0,0,0,4,0,4,0,,,,,,,,,,,,,204.83852160000242,,,,,,,,204.8239170999732,209.82236359990202,209.82236999995075,209.8385932999663,221.8554590998683,221.82267479994334,0,active,45.3,221.82282549981028,225.34026549989358,36.99999999999995,3.498,,,,,,,,,,,,,,,,,,,,,,,,,,,,,,,,,,,,,,sub-031,46.2,45.3,46.9,COM3,2024-02-22_13h06.14.102,2024_RDpaindiscrimination_maintask,2023.2.3,60.00204011283855,2024-02-22 13h06.37.550402 -0500,
0,0,0,0,5,0,5,0,,,,,,,,,,,,,225.35545159992762,,,,,,,,225.34113630000502,230.33897499996237,230.33898149989545,230.355393699836,242.3722540999297,242.33939389977604,1,inactive,46.2,242.33953569992445,245.3747693998739,42.99999999999996,3.016,,,,,,,,,,,,,,,,,,,,,,,,,,,,,,,,,,,,,,sub-031,46.2,45.3,46.9,COM3,2024-02-22_13h06.14.102,2024_RDpaindiscrimination_maintask,2023.2.3,60.00204011283855,2024-02-22 13h06.37.550402 -0500,
0,0,0,0,6,0,6,0,,,,,,,,,,,,,245.3889491998125,,,,,,,,245.37558999983594,250.37254459992982,250.37255119998008,250.3890094999224,262.40586739988066,262.37297009979375,2,active,45.3,262.3731164999772,265.8242964998353,37.000000000000156,3.432,,,,,,,,,,,,,,,,,,,,,,,,,,,,,,,,,,,,,,sub-031,46.2,45.3,46.9,COM3,2024-02-22_13h06.14.102,2024_RDpaindiscrimination_maintask,2023.2.3,60.00204011283855,2024-02-22 13h06.37.550402 -0500,
0,0,0,0,7,0,7,0,,,,,,,,,,,,,265.83920219982974,,,,,,,,265.82505549979396,270.8229301997926,270.82293659984134,270.83920970000327,282.85599429998547,282.8231842999812,3,inactive,46.2,282.82332520000637,286.9754141999874,43.00000000000006,4.132,,,,,,,,,,,,,,,,,,,,,,,,,,,,,,,,,,,,,,sub-031,46.2,45.3,46.9,COM3,2024-02-22_13h06.14.102,2024_RDpaindiscrimination_maintask,2023.2.3,60.00204011283855,2024-02-22 13h06.37.550402 -0500,
0,0,0,0,8,0,8,0,,,,,,,,,,,,,286.98944039992057,,,,,,,,286.9761968997773,291.972956399899,291.97296299994923,291.98935119993985,304.00625319988467,303.973353699781,0,active,45.3,303.9735016999766,307.5595838997979,36.000000000000156,3.567,,,,,,,,,,,,,,,,,,,,,,,,,,,,,,,,,,,,,,sub-031,46.2,45.3,46.9,COM3,2024-02-22_13h06.14.102,2024_RDpaindiscrimination_maintask,2023.2.3,60.00204011283855,2024-02-22 13h06.37.550402 -0500,
0,0,0,0,9,0,9,0,,,,,,,,,,,,,307.57301319995895,,,,,,,,307.5604068997782,312.55649139988236,312.55649819993414,312.5728916998487,324.5896731999237,324.55697699985467,1,inactive,46.2,324.5571245998144,327.5424807998352,46.99999999999994,2.967,,,,,,,,,,,,,,,,,,,,,,,,,,,,,,,,,,,,,,sub-031,46.2,45.3,46.9,COM3,2024-02-22_13h06.14.102,2024_RDpaindiscrimination_maintask,2023.2.3,60.00204011283855,2024-02-22 13h06.37.550402 -0500,
0,0,0,0,10,0,10,0,,,,,,,,,,,,,327.5564686998259,,,,,,,,327.54332199995406,332.53990859980695,332.5399149998557,332.55649299989454,344.5733433999121,344.54048449988477,2,active,45.3,344.54062739992514,347.20918189990334,45.499999999999915,2.65,,,,,,,,,,,,,,,,,,,,,,,,,,,,,,,,,,,,,,sub-031,46.2,45.3,46.9,COM3,2024-02-22_13h06.14.102,2024_RDpaindiscrimination_maintask,2023.2.3,60.00204011283855,2024-02-22 13h06.37.550402 -0500,
0,0,0,0,11,0,11,0,,,,,,,,,,,,,347.22335339989513,,,,,,,,347.20994479977526,352.2068049998488,352.2068115998991,352.2233513998799,364.2401514998637,364.2072374999989,3,inactive,46.2,364.20738059980795,366.658377799904,51.99999999999992,2.432,,,,,,,,,,,,,,,,,,,,,,,,,,,,,,,,,,,,,,sub-031,46.2,45.3,46.9,COM3,2024-02-22_13h06.14.102,2024_RDpaindiscrimination_maintask,2023.2.3,60.00204011283855,2024-02-22 13h06.37.550402 -0500,
0,0,0,0,12,0,12,0,,,,,,,,,,,,,366.6734837999102,,,,,,,,366.65914399991743,371.65704149985686,371.65704819979146,371.6735064999666,383.740420299815,383.6575419998262,0,inactive,46.2,383.6576863999944,386.56015859986655,57.49999999999987,2.834,,,,,,,,,,,,,,,,,,,,,,,,,,,,,,,,,,,,,,sub-031,46.2,45.3,46.9,COM3,2024-02-22_13h06.14.102,2024_RDpaindiscrimination_maintask,2023.2.3,60.00204011283855,2024-02-22 13h06.37.550402 -0500,
0,0,0,0,13,0,13,0,,,,,,,,,,,,,386.5737721999176,,,,,,,,386.5609211998526,391.5573241999373,391.55733069987036,391.57375260000117,403.59062259993516,403.5577016999014,1,active,45.3,403.55784619995393,405.9760250998661,43.49999999999995,2.399,,,,,,,,,,,,,,,,,,,,,,,,,,,,,,,,,,,,,,sub-031,46.2,45.3,46.9,COM3,2024-02-22_13h06.14.102,2024_RDpaindiscrimination_maintask,2023.2.3,60.00204011283855,2024-02-22 13h06.37.550402 -0500,
0,0,0,0,14,0,14,0,,,,,,,,,,,,,405.99064869992435,,,,,,,,405.97687439993024,410.9740768999327,410.97408319986425,410.9905812998768,423.0074362999294,422.9745179999154,2,inactive,46.2,422.9746610999573,427.46025119978003,53.499999999999886,4.467,,,,,,,,,,,,,,,,,,,,,,,,,,,,,,,,,,,,,,sub-031,46.2,45.3,46.9,COM3,2024-02-22_13h06.14.102,2024_RDpaindiscrimination_maintask,2023.2.3,60.00204011283855,2024-02-22 13h06.37.550402 -0500,
0,0,0,0,15,0,15,0,,,,,,,,,,,,,427.4742364999838,,,,,,,,427.46101109986193,432.4576689999085,432.45767579996027,432.47413209988736,444.490974499844,444.45808979985304,3,active,45.3,444.45823489991017,447.3274093999062,41.5000000000001,2.85,,,,,,,,,,,,,,,,,,,,,,,,,,,,,,,,,,,,,,sub-031,46.2,45.3,46.9,COM3,2024-02-22_13h06.14.102,2024_RDpaindiscrimination_maintask,2023.2.3,60.00204011283855,2024-02-22 13h06.37.550402 -0500,
0,0,0,0,,,,,0,0,0,0,0,0,0,0,,,,,498.50826569995843,,,,,,480.6920328999404,498.49186029983684,,,,,,,0,inactive,46.2,515.4921466999222,518.1777842999436,56.49999999999998,2.666,447.3279981999658,447.341061799787,480.69171649985947,498.49216199992225,503.4917967999354,503.49180389987305,503.50832019979134,515.525098899845,515.4921381999739,,,,,,,,,,,,,,,,,,,,,,,,,,,,,sub-031,46.2,45.3,46.9,COM3,2024-02-22_13h06.14.102,2024_RDpaindiscrimination_maintask,2023.2.3,60.00204011283855,2024-02-22 13h06.37.550402 -0500,
0,0,0,0,,,,,0,0,0,0,1,0,1,0,,,,,518.1917900999542,,,,,,,,,,,,,,1,active,46.2,535.1756408999208,538.4264757998753,53.99999999999988,3.232,,,,518.1786651997827,523.1753726999741,523.1753795999102,523.1917961998843,535.2086371998303,535.175633699866,,,,,,,,,,,,,,,,,,,,,,,,,,,,,sub-031,46.2,45.3,46.9,COM3,2024-02-22_13h06.14.102,2024_RDpaindiscrimination_maintask,2023.2.3,60.00204011283855,2024-02-22 13h06.37.550402 -0500,
0,0,0,0,,,,,0,0,0,0,,,,,0,0,0,0,541.3753750999458,,,,,,,,,,,,,,2,inactive,,,,,,,,,,,,,,,538.4270171998069,541.3589968997985,541.3593402998522,546.3589935998898,546.3590004998259,546.3753835998941,554.3588446998037,554.3588446998037,557.3255448997952,557.3588105998933,557.3588105998933,557.3423387999646,4.71,4.09,471,409,8,1.2,0.75,pic-present,1,n,1.8725747999269515,None,,,,,sub-031,46.2,45.3,46.9,COM3,2024-02-22_13h06.14.102,2024_RDpaindiscrimination_maintask,2023.2.3,60.00204011283855,2024-02-22 13h06.37.550402 -0500,
0,0,0,0,,,,,0,0,0,0,,,,,1,0,1,0,557.3588105998933,,,,,,,,,,,,,,3,active,,,,,,,,,,,,,,,,,557.3429654999636,562.3424161998555,562.3424236997962,562.3589187997859,570.3422849997878,570.3422849997878,573.3089960999787,573.3424167998601,573.3424167998601,573.3258748999797,3.94,4.86,394,486,8,1.2,0.75,pic-absent,0,m,0.7965489998459816,None,,,,,sub-031,46.2,45.3,46.9,COM3,2024-02-22_13h06.14.102,2024_RDpaindiscrimination_maintask,2023.2.3,60.00204011283855,2024-02-22 13h06.37.550402 -0500,
0,0,0,0,,,,,0,0,0,0,,,,,2,0,2,0,573.3424167998601,,,,,,,,,,,,,,0,inactive,,,,,,,,,,,,,,,,,573.3263327998575,578.3258876998443,578.325895199785,578.3423521998338,586.325802099891,586.325802099891,589.2925056999084,589.325899399817,589.325899399817,589.3092873999849,3.81,4.99,381,499,8,1.2,0.75,pic-present,1,n,0.8011543001048267,None,,,,,sub-031,46.2,45.3,46.9,COM3,2024-02-22_13h06.14.102,2024_RDpaindiscrimination_maintask,2023.2.3,60.00204011283855,2024-02-22 13h06.37.550402 -0500,
0,0,0,0,,,,,0,0,0,0,,,,,3,0,3,0,589.325899399817,,,,,,,,,,,,,,1,active,,,,,,,,,,,,,,,,,589.3097618999891,594.3093843997922,594.3093917998485,594.3258867999539,602.3093410998117,602.3093410998117,605.2759662999306,605.3092982999515,605.3092982999515,605.292852899991,4.27,4.53,426,453,8,1.2,0.75,pic-present,1,n,0.6224730000831187,None,,,,,sub-031,46.2,45.3,46.9,COM3,2024-02-22_13h06.14.102,2024_RDpaindiscrimination_maintask,2023.2.3,60.00204011283855,2024-02-22 13h06.37.550402 -0500,
0,0,0,0,,,,,1,0,1,0,0,0,0,0,,,,,609.6760147998575,,,,,,605.293347899802,609.6596045999322,,,,,,,2,active,46.2,626.6599299998488,629.0125900998246,41.500000000000064,2.334,,,,609.6599094998091,614.6595789999701,614.6595856999047,614.6760303999763,626.6928491999861,626.6599217997864,,,,,,,,,,,,,,,,,,,,,,,,,,,,,sub-031,46.2,45.3,46.9,COM3,2024-02-22_13h06.14.102,2024_RDpaindiscrimination_maintask,2023.2.3,60.00204011283855,2024-02-22 13h06.37.550402 -0500,
0,0,0,0,,,,,1,0,1,0,1,0,1,0,,,,,629.0262916998472,,,,,,,,,,,,,,3,inactive,46.2,646.0103977997787,648.2465233998373,55.99999999999998,2.218,,,,629.0134348999709,634.0098030997906,634.0098095999565,634.0262341999914,646.0430469999555,646.0103901999537,,,,,,,,,,,,,,,,,,,,,,,,,,,,,sub-031,46.2,45.3,46.9,COM3,2024-02-22_13h06.14.102,2024_RDpaindiscrimination_maintask,2023.2.3,60.00204011283855,2024-02-22 13h06.37.550402 -0500,
0,0,0,0,,,,,1,0,1,0,,,,,0,0,0,0,650.5764292997774,,,,,,,,,,,,,,0,active,,,,,,,,,,,,,,,648.247107999865,650.5601959999185,650.5605313999113,655.5601080998313,655.5601147999987,655.5765050000045,663.5598968998529,663.5598968998529,666.5266038998961,666.5600011998322,666.5600011998322,666.5434559998102,3.63,5.17,363,517,8,1.2,0.75,pic-absent,1,n,1.37150299991481,None,,,,,sub-031,46.2,45.3,46.9,COM3,2024-02-22_13h06.14.102,2024_RDpaindiscrimination_maintask,2023.2.3,60.00204011283855,2024-02-22 13h06.37.550402 -0500,
0,0,0,0,,,,,1,0,1,0,,,,,1,0,1,0,666.5600011998322,,,,,,,,,,,,,,1,inactive,,,,,,,,,,,,,,,,,666.5439683999866,671.5434796998743,671.5434874999337,671.5600077998824,679.5434490998741,679.5434490998741,682.510165499989,682.5434400998056,682.5434400998056,682.5269759998191,3.28,5.52,328,552,8,1.2,0.75,pic-absent,0,m,0.7199889000039548,None,,,,,sub-031,46.2,45.3,46.9,COM3,2024-02-22_13h06.14.102,2024_RDpaindiscrimination_maintask,2023.2.3,60.00204011283855,2024-02-22 13h06.37.550402 -0500,
0,0,0,0,,,,,1,0,1,0,,,,,2,0,2,0,682.5434400998056,,,,,,,,,,,,,,2,active,,,,,,,,,,,,,,,,,682.5274485999253,687.5270300998818,687.5270375998225,687.5435416998807,695.5269494999666,695.5269494999666,698.4937050999142,698.526985499775,698.526985499775,698.5104995998554,4.14,4.66,413,466,8,1.2,0.75,pic-present,1,n,1.2805433999747038,None,,,,,sub-031,46.2,45.3,46.9,COM3,2024-02-22_13h06.14.102,2024_RDpaindiscrimination_maintask,2023.2.3,60.00204011283855,2024-02-22 13h06.37.550402 -0500,
0,0,0,0,,,,,1,0,1,0,,,,,3,0,3,0,698.526985499775,,,,,,,,,,,,,,3,inactive,,,,,,,,,,,,,,,,,698.5109520999249,703.5105239998084,703.5105311998632,703.5269967999775,711.5104559999891,711.5104559999891,714.4771509999409,714.5104890998919,714.5104890998919,714.4939997999463,4.71,4.09,471,409,8,1.2,0.75,pic-absent,0,m,0.4450634000822902,None,,,,,sub-031,46.2,45.3,46.9,COM3,2024-02-22_13h06.14.102,2024_RDpaindiscrimination_maintask,2023.2.3,60.00204011283855,2024-02-22 13h06.37.550402 -0500,
0,0,0,0,,,,,2,0,2,0,0,0,0,0,,,,,716.4438496998046,,,,,,714.4945080999751,716.4274393999949,,,,,,,0,inactive,46.2,733.427806599997,739.3136742999777,52.49999999999999,5.867,,,,716.4277610999998,721.4273953998927,721.4274021999445,721.4438119998667,733.460672999965,733.4277982998174,,,,,,,,,,,,,,,,,,,,,,,,,,,,,sub-031,46.2,45.3,46.9,COM3,2024-02-22_13h06.14.102,2024_RDpaindiscrimination_maintask,2023.2.3,60.00204011283855,2024-02-22 13h06.37.550402 -0500,
0,0,0,0,,,,,2,0,2,0,1,0,1,0,,,,,739.327398999827,,,,,,,,,,,,,,1,active,46.2,756.3113690998871,759.4466058998369,52.499999999999964,3.117,,,,739.3144055998418,744.3108888999559,744.310895799892,744.3273804998025,756.3442490999587,756.3113608998246,,,,,,,,,,,,,,,,,,,,,,,,,,,,,sub-031,46.2,45.3,46.9,COM3,2024-02-22_13h06.14.102,2024_RDpaindiscrimination_maintask,2023.2.3,60.00204011283855,2024-02-22 13h06.37.550402 -0500,
0,0,0,0,,,,,2,0,2,0,,,,,0,0,0,0,762.1276014999021,,,,,,,,,,,,,,2,active,,,,,,,,,,,,,,,759.4471207999159,762.1113513999153,762.1116648998577,767.1112475998234,767.1112545998767,767.1277154998388,775.111195899779,775.111195899779,778.0778539997991,778.1111996998079,778.1111996998079,778.0946919999551,3.96,4.84,396,484,8,1.2,0.75,pic-present,1,n,0.6328551999758929,None,,,,,sub-031,46.2,45.3,46.9,COM3,2024-02-22_13h06.14.102,2024_RDpaindiscrimination_maintask,2023.2.3,60.00204011283855,2024-02-22 13h06.37.550402 -0500,
0,0,0,0,,,,,2,0,2,0,,,,,1,0,1,0,778.1111996998079,,,,,,,,,,,,,,3,inactive,,,,,,,,,,,,,,,,,778.0952576999553,783.0947218998335,783.0947297997773,783.1112045999616,791.0946127998177,791.0946127998177,794.0613355999812,794.0946974998806,794.0946974998806,794.0781912999228,3.59,5.21,359,521,8,1.2,0.75,pic-present,1,n,1.1567621999420226,None,,,,,sub-031,46.2,45.3,46.9,COM3,2024-02-22_13h06.14.102,2024_RDpaindiscrimination_maintask,2023.2.3,60.00204011283855,2024-02-22 13h06.37.550402 -0500,
0,0,0,0,,,,,2,0,2,0,,,,,2,0,2,0,794.0946974998806,,,,,,,,,,,,,,0,active,,,,,,,,,,,,,,,,,794.0787133998238,799.0782898999751,799.0782971999142,799.0947011997923,807.0781431999058,807.0781431999058,810.0448636999354,810.0781356999651,810.0781356999651,810.0616913998965,3.37,5.43,337,543,8,1.2,0.75,pic-absent,1,n,1.868817799957469,None,,,,,sub-031,46.2,45.3,46.9,COM3,2024-02-22_13h06.14.102,2024_RDpaindiscrimination_maintask,2023.2.3,60.00204011283855,2024-02-22 13h06.37.550402 -0500,
0,0,0,0,,,,,2,0,2,0,,,,,3,0,3,0,810.0781356999651,,,,,,,,,,,,,,1,inactive,,,,,,,,,,,,,,,,,810.0621779998764,815.0617263999302,815.0617340998724,815.0781877997797,823.0616815998219,823.0616815998219,826.0283560999669,826.0616848999634,826.0616848999634,826.0451976999175,3.67,5.13,367,513,8,1.2,0.75,pic-present,1,n,0.9375702999532223,None,,,,,sub-031,46.2,45.3,46.9,COM3,2024-02-22_13h06.14.102,2024_RDpaindiscrimination_maintask,2023.2.3,60.00204011283855,2024-02-22 13h06.37.550402 -0500,
0,0,0,0,,,,,3,0,3,0,0,0,0,0,,,,,828.6115945999045,,,,,,826.0456794998609,828.5953228999861,,,,,,,2,active,46.2,845.5956466000061,848.0641633998603,35.49999999999994,2.45,,,,828.595638499828,833.595252199797,833.5952595998533,833.611832199851,845.6285412998404,845.5956379999407,,,,,,,,,,,,,,,,,,,,,,,,,,,,,sub-031,46.2,45.3,46.9,COM3,2024-02-22_13h06.14.102,2024_RDpaindiscrimination_maintask,2023.2.3,60.00204011283855,2024-02-22 13h06.37.550402 -0500,
0,0,0,0,,,,,3,0,3,0,1,0,1,0,,,,,848.0784675998148,,,,,,,,,,,,,,3,inactive,46.2,865.0624073999934,867.0482123999391,51.99999999999992,1.967,,,,848.0648868998978,853.0621360999066,853.0621429998428,853.0785246999003,865.0953708000015,865.0623989999294,,,,,,,,,,,,,,,,,,,,,,,,,,,,,sub-031,46.2,45.3,46.9,COM3,2024-02-22_13h06.14.102,2024_RDpaindiscrimination_maintask,2023.2.3,60.00204011283855,2024-02-22 13h06.37.550402 -0500,
0,0,0,0,,,,,3,0,3,0,,,,,0,0,0,0,869.0454591999296,,,,,,,,,,,,,,0,inactive,,,,,,,,,,,,,,,867.0487681999803,869.0290541998111,869.029365999857,874.0290833998006,874.0290905998554,874.0454527998809,882.028911500005,882.028911500005,884.9955382999033,885.0289315998089,885.0289315998089,885.0124765997753,4.66,4.14,466,413,8,1.2,0.75,pic-absent,0,m,2.3100928000640124,None,,,,,sub-031,46.2,45.3,46.9,COM3,2024-02-22_13h06.14.102,2024_RDpaindiscrimination_maintask,2023.2.3,60.00204011283855,2024-02-22 13h06.37.550402 -0500,
0,0,0,0,,,,,3,0,3,0,,,,,1,0,1,0,885.0289315998089,,,,,,,,,,,,,,1,active,,,,,,,,,,,,,,,,,885.0130273997784,890.012491399888,890.0124985999428,890.0288972998969,898.0122773998883,898.0122773998883,900.9789773998782,901.0123153999448,901.0123153999448,900.9958949999418,4.41,4.39,441,438,8,1.2,0.75,pic-present,1,n,0.8064204000402242,None,,,,,sub-031,46.2,45.3,46.9,COM3,2024-02-22_13h06.14.102,2024_RDpaindiscrimination_maintask,2023.2.3,60.00204011283855,2024-02-22 13h06.37.550402 -0500,
0,0,0,0,,,,,3,0,3,0,,,,,2,0,2,0,901.0123153999448,,,,,,,,,,,,,,2,inactive,,,,,,,,,,,,,,,,,900.9963967998046,905.9958531998564,905.9958604997955,906.0123603998218,913.9958909999114,913.9958909999114,916.9625819998328,916.9958883998916,916.9958883998916,916.9793942999095,3.32,5.48,332,548,8,1.2,0.75,pic-absent,0,m,0.3910990001168102,None,,,,,sub-031,46.2,45.3,46.9,COM3,2024-02-22_13h06.14.102,2024_RDpaindiscrimination_maintask,2023.2.3,60.00204011283855,2024-02-22 13h06.37.550402 -0500,
0,0,0,0,,,,,3,0,3,0,,,,,3,0,3,0,916.9958883998916,,,,,,,,,,,,,,3,active,,,,,,,,,,,,,,,,,916.9798770998605,921.9794519999996,921.9794592999388,921.9959294998553,929.9793747998774,929.9793747998774,932.9460938998964,932.9793858998455,932.9793858998455,932.9629146999214,4.53,4.27,453,426,8,1.2,0.75,pic-absent,0,m,1.094796200050041,None,,,,,sub-031,46.2,45.3,46.9,COM3,2024-02-22_13h06.14.102,2024_RDpaindiscrimination_maintask,2023.2.3,60.00204011283855,2024-02-22 13h06.37.550402 -0500,
1,0,1,0,0,0,0,0,,,,,,,,,,,,,1021.597000699956,,,,1007.3805821998976,1017.5639580998104,1017.5639666998759,1021.5805295999162,1021.5808372998144,1026.5805136999115,1026.5805221998598,1026.5970522998832,1038.6137522999197,1038.5810010998975,0,active,45.3,1038.58121499978,1041.2665734000038,33.50000000000006,2.662,,,,,,,,,,,,,,,,,,,,,,,,,,,,,,,,,,932.9633477998432,1007.3804567998741,,,sub-031,46.2,45.3,46.9,COM3,2024-02-22_13h06.14.102,2024_RDpaindiscrimination_maintask,2023.2.3,60.00204011283855,2024-02-22 13h06.37.550402 -0500,
1,0,1,0,1,0,1,0,,,,,,,,,,,,,1041.28056679992,,,,,,,,1041.2674805999268,1046.264062399976,1046.264069199795,1046.2805646997876,1058.297353599919,1058.264493299881,1,active,45.3,1058.2646380998194,1060.1826756999362,33.00000000000003,1.899,,,,,,,,,,,,,,,,,,,,,,,,,,,,,,,,,,,,,,sub-031,46.2,45.3,46.9,COM3,2024-02-22_13h06.14.102,2024_RDpaindiscrimination_maintask,2023.2.3,60.00204011283855,2024-02-22 13h06.37.550402 -0500,
1,0,1,0,2,0,2,0,,,,,,,,,,,,,1060.1974042998627,,,,,,,,1060.1835157999303,1065.1809346999507,1065.1809415000025,1065.19743189984,1077.2143402998336,1077.1815173998475,2,inactive,46.2,1077.1816659998149,1080.033713299781,60.0,2.833,,,,,,,,,,,,,,,,,,,,,,,,,,,,,,,,,,,,,,sub-031,46.2,45.3,46.9,COM3,2024-02-22_13h06.14.102,2024_RDpaindiscrimination_maintask,2023.2.3,60.00204011283855,2024-02-22 13h06.37.550402 -0500,
1,0,1,0,3,0,3,0,,,,,,,,,,,,,1080.0476517998613,,,,,,,,1080.0345467999578,1085.0311051998287,1085.0311119998805,1085.0476018998306,1097.064501099987,1097.0315821999684,3,active,45.3,1097.031728599919,1099.1011478998698,39.00000000000004,2.05,,,,,,,,,,,,,,,,,,,,,,,,,,,,,,,,,,,,,,sub-031,46.2,45.3,46.9,COM3,2024-02-22_13h06.14.102,2024_RDpaindiscrimination_maintask,2023.2.3,60.00204011283855,2024-02-22 13h06.37.550402 -0500,
1,0,1,0,4,0,4,0,,,,,,,,,,,,,1099.1145249998663,,,,,,,,1099.101905199932,1104.0979977999814,1104.0980041997973,1104.1144657998811,1116.1314142998308,1116.0984847999644,0,inactive,46.2,1116.0986308997963,1118.2338979998603,61.50000000000003,2.116,,,,,,,,,,,,,,,,,,,,,,,,,,,,,,,,,,,,,,sub-031,46.2,45.3,46.9,COM3,2024-02-22_13h06.14.102,2024_RDpaindiscrimination_maintask,2023.2.3,60.00204011283855,2024-02-22 13h06.37.550402 -0500,
1,0,1,0,5,0,5,0,,,,,,,,,,,,,1118.248038499849,,,,,,,,1118.2347450999077,1123.2315335997846,1123.231540299952,1123.248052299954,1135.264868899947,1135.2320198998787,1,active,45.3,1135.2321705999784,1137.5505888999905,39.49999999999993,2.3,,,,,,,,,,,,,,,,,,,,,,,,,,,,,,,,,,,,,,sub-031,46.2,45.3,46.9,COM3,2024-02-22_13h06.14.102,2024_RDpaindiscrimination_maintask,2023.2.3,60.00204011283855,2024-02-22 13h06.37.550402 -0500,
1,0,1,0,6,0,6,0,,,,,,,,,,,,,1137.5649279998615,,,,,,,,1137.5514375998173,1142.5484477998689,1142.548458499834,1142.5649123999756,1154.5817701998167,1154.548880299786,2,active,45.3,1154.5490258999635,1157.0659730997868,33.50000000000016,2.498,,,,,,,,,,,,,,,,,,,,,,,,,,,,,,,,,,,,,,sub-031,46.2,45.3,46.9,COM3,2024-02-22_13h06.14.102,2024_RDpaindiscrimination_maintask,2023.2.3,60.00204011283855,2024-02-22 13h06.37.550402 -0500,
1,0,1,0,7,0,7,0,,,,,,,,,,,,,1157.0817427998409,,,,,,,,1157.0662377998233,1162.065336899832,1162.0653438998852,1162.0817461998668,1174.0986759997904,1174.0657698998693,3,inactive,46.2,1174.0659184998367,1178.0849537998438,52.999999999999886,4.0,,,,,,,,,,,,,,,,,,,,,,,,,,,,,,,,,,,,,,sub-031,46.2,45.3,46.9,COM3,2024-02-22_13h06.14.102,2024_RDpaindiscrimination_maintask,2023.2.3,60.00204011283855,2024-02-22 13h06.37.550402 -0500,
1,0,1,0,8,0,8,0,,,,,,,,,,,,,1178.0986980998423,,,,,,,,1178.0856910999864,1183.0822013998404,1183.0822079998907,1183.0985927998554,1195.115461899899,1195.0825532998424,0,active,45.3,1195.0827022998128,1198.2180587998591,43.99999999999999,3.117,,,,,,,,,,,,,,,,,,,,,,,,,,,,,,,,,,,,,,sub-031,46.2,45.3,46.9,COM3,2024-02-22_13h06.14.102,2024_RDpaindiscrimination_maintask,2023.2.3,60.00204011283855,2024-02-22 13h06.37.550402 -0500,
1,0,1,0,9,0,9,0,,,,,,,,,,,,,1198.2322204997763,,,,,,,,1198.21885869978,1203.2157057998702,1203.2157124998048,1203.2321410998702,1215.2490962999873,1215.216232799925,1,inactive,46.2,1215.216379399877,1217.2516229997855,52.999999999999915,2.016,,,,,,,,,,,,,,,,,,,,,,,,,,,,,,,,,,,,,,sub-031,46.2,45.3,46.9,COM3,2024-02-22_13h06.14.102,2024_RDpaindiscrimination_maintask,2023.2.3,60.00204011283855,2024-02-22 13h06.37.550402 -0500,
1,0,1,0,10,0,10,0,,,,,,,,,,,,,1217.2657232999336,,,,,,,,1217.2524600999895,1222.2492174999788,1222.2492244997993,1222.2656639998313,1234.2826344999485,1234.2497151999269,2,inactive,46.2,1234.2498590999749,1236.4343253998086,59.49999999999993,2.166,,,,,,,,,,,,,,,,,,,,,,,,,,,,,,,,,,,,,,sub-031,46.2,45.3,46.9,COM3,2024-02-22_13h06.14.102,2024_RDpaindiscrimination_maintask,2023.2.3,60.00204011283855,2024-02-22 13h06.37.550402 -0500,
1,0,1,0,11,0,11,0,,,,,,,,,,,,,1236.4492873998825,,,,,,,,1236.43512979988,1241.4328718998004,1241.4328784998506,1241.4494011998177,1253.466102699982,1253.433286999818,3,active,45.3,1253.4334323999938,1256.8692288999446,42.0,3.417,,,,,,,,,,,,,,,,,,,,,,,,,,,,,,,,,,,,,,sub-031,46.2,45.3,46.9,COM3,2024-02-22_13h06.14.102,2024_RDpaindiscrimination_maintask,2023.2.3,60.00204011283855,2024-02-22 13h06.37.550402 -0500,
1,0,1,0,12,0,12,0,,,,,,,,,,,,,1256.882743399823,,,,,,,,1256.8700011000037,1261.8664000998251,1261.8664066998754,1261.8827618998475,1273.899697399931,1273.8669505999424,0,inactive,46.2,1273.8670943998732,1278.0189529999625,58.4999999999998,4.132,,,,,,,,,,,,,,,,,,,,,,,,,,,,,,,,,,,,,,sub-031,46.2,45.3,46.9,COM3,2024-02-22_13h06.14.102,2024_RDpaindiscrimination_maintask,2023.2.3,60.00204011283855,2024-02-22 13h06.37.550402 -0500,
1,0,1,0,13,0,13,0,,,,,,,,,,,,,1278.0330868999008,,,,,,,,1278.0197327998467,1283.0166487998795,1283.0166555999313,1283.0330278999172,1295.0499148999806,1295.017207799945,1,inactive,46.2,1295.0173487998545,1298.1530993999913,61.49999999999986,3.117,,,,,,,,,,,,,,,,,,,,,,,,,,,,,,,,,,,,,,sub-031,46.2,45.3,46.9,COM3,2024-02-22_13h06.14.102,2024_RDpaindiscrimination_maintask,2023.2.3,60.00204011283855,2024-02-22 13h06.37.550402 -0500,
1,0,1,0,14,0,14,0,,,,,,,,,,,,,1298.166694099782,,,,,,,,1298.1538338998798,1303.150214899797,1303.150223299861,1303.166592199821,1315.1835017998237,1315.1506031998433,2,active,45.3,1315.1507489997894,1317.5187955999281,38.000000000000114,2.349,,,,,,,,,,,,,,,,,,,,,,,,,,,,,,,,,,,,,,sub-031,46.2,45.3,46.9,COM3,2024-02-22_13h06.14.102,2024_RDpaindiscrimination_maintask,2023.2.3,60.00204011283855,2024-02-22 13h06.37.550402 -0500,
1,0,1,0,15,0,15,0,,,,,,,,,,,,,1317.5334654999897,,,,,,,,1317.5196316000074,1322.5170053998008,1322.5170120999683,1322.533455699915,1334.550316099776,1334.5174553999677,3,inactive,46.2,1334.5176044998225,1337.5699313997757,55.49999999999987,3.033,,,,,,,,,,,,,,,,,,,,,,,,,,,,,,,,,,,,,,sub-031,46.2,45.3,46.9,COM3,2024-02-22_13h06.14.102,2024_RDpaindiscrimination_maintask,2023.2.3,60.00204011283855,2024-02-22 13h06.37.550402 -0500,
1,0,1,0,,,,,0,0,0,0,0,0,0,0,,,,,1350.1836989999283,,,,,,1348.451037199935,1350.1673395999242,,,,,,,0,active,46.2,1367.1676679998636,1370.185563699808,45.49999999999998,2.999,1337.5704946999904,1337.5836406999733,1348.4507042998448,1350.1676450998057,1355.1672484998126,1355.1672554998659,1355.1837649999652,1367.2005471999291,1367.1676594999153,,,,,,,,,,,,,,,,,,,,,,,,,,,,,sub-031,46.2,45.3,46.9,COM3,2024-02-22_13h06.14.102,2024_RDpaindiscrimination_maintask,2023.2.3,60.00204011283855,2024-02-22 13h06.37.550402 -0500,
1,0,1,0,,,,,0,0,0,0,1,0,1,0,,,,,1370.2006224999204,,,,,,,,,,,,,,1,inactive,46.2,1387.1845790999942,1390.4207114998717,59.999999999999865,3.218,,,,1370.1863195998594,1375.184096999932,1375.1841034998652,1375.2005967998412,1387.21750719985,1387.1845710999332,,,,,,,,,,,,,,,,,,,,,,,,,,,,,sub-031,46.2,45.3,46.9,COM3,2024-02-22_13h06.14.102,2024_RDpaindiscrimination_maintask,2023.2.3,60.00204011283855,2024-02-22 13h06.37.550402 -0500,
1,0,1,0,,,,,0,0,0,0,,,,,0,0,0,0,1394.4675379998516,,,,,,,,,,,,,,2,active,,,,,,,,,,,,,,,1390.4212514997926,1394.4511202999856,1394.4514338998124,1399.451127299806,1399.4511334998533,1399.4675479999278,1407.4509638999589,1407.4509638999589,1410.4176670999732,1410.450996399857,1410.450996399857,1410.4345340998843,4.46,4.34,446,434,8,1.2,0.75,pic-absent,1,n,1.9945751000195742,None,,,,,sub-031,46.2,45.3,46.9,COM3,2024-02-22_13h06.14.102,2024_RDpaindiscrimination_maintask,2023.2.3,60.00204011283855,2024-02-22 13h06.37.550402 -0500,
1,0,1,0,,,,,0,0,0,0,,,,,1,0,1,0,1410.450996399857,,,,,,,,,,,,,,3,active,,,,,,,,,,,,,,,,,1410.4350828998722,1415.4345642998815,1415.434571399819,1415.4510357999243,1423.4344692998566,1423.4344692998566,1426.4011664998252,1426.434581299778,1426.434581299778,1426.418017799966,4.19,4.61,419,461,8,1.2,0.75,pic-present,1,n,0.7318252001423389,None,,,,,sub-031,46.2,45.3,46.9,COM3,2024-02-22_13h06.14.102,2024_RDpaindiscrimination_maintask,2023.2.3,60.00204011283855,2024-02-22 13h06.37.550402 -0500,
1,0,1,0,,,,,0,0,0,0,,,,,2,0,2,0,1426.434581299778,,,,,,,,,,,,,,0,inactive,,,,,,,,,,,,,,,,,1426.4185092998669,1431.41808949993,1431.4180970999878,1431.4345206997823,1439.4180561997928,1439.4180561997928,1442.3846969997976,1442.418039899785,1442.418039899785,1442.401545099914,3.63,5.17,363,517,8,1.2,0.75,pic-present,1,n,0.6958448998630047,None,,,,,sub-031,46.2,45.3,46.9,COM3,2024-02-22_13h06.14.102,2024_RDpaindiscrimination_maintask,2023.2.3,60.00204011283855,2024-02-22 13h06.37.550402 -0500,
1,0,1,0,,,,,0,0,0,0,,,,,3,0,3,0,1442.418039899785,,,,,,,,,,,,,,1,active,,,,,,,,,,,,,,,,,1442.4020544998348,1447.4016158999875,1447.4016230998095,1447.4180584999267,1455.401588899782,1455.401588899782,1458.3682037999388,1458.4015792999417,1458.4015792999417,1458.3850537999533,3.66,5.14,366,514,8,1.2,0.75,pic-absent,0,m,0.6126826999243349,None,,,,,sub-031,46.2,45.3,46.9,COM3,2024-02-22_13h06.14.102,2024_RDpaindiscrimination_maintask,2023.2.3,60.00204011283855,2024-02-22 13h06.37.550402 -0500,
1,0,1,0,,,,,1,0,1,0,0,0,0,0,,,,,1461.0849573998712,,,,,,1458.385532999877,1461.0684776999988,,,,,,,2,inactive,46.2,1478.0685385998804,1480.77140279999,53.00000000000006,2.684,,,,1461.0687874997966,1466.0684398999438,1466.0684466999955,1466.0849195998162,,1478.068530399818,,,,,,,,,,,,,,,,,,,,,,,,,,,,,sub-031,46.2,45.3,46.9,COM3,2024-02-22_13h06.14.102,2024_RDpaindiscrimination_maintask,2023.2.3,60.00204011283855,2024-02-22 13h06.37.550402 -0500,
1,0,1,0,,,,,1,0,1,0,1,0,1,0,,,,,1480.785154099809,,,,,,,,,,,,,,3,active,46.2,1497.7693757999223,1500.0709642998409,51.499999999999886,2.283,,,,1480.7722116999794,1485.7686373000033,1485.7686437999364,1485.785175899975,1497.8020732000005,1497.769367699977,,,,,,,,,,,,,,,,,,,,,,,,,,,,,sub-031,46.2,45.3,46.9,COM3,2024-02-22_13h06.14.102,2024_RDpaindiscrimination_maintask,2023.2.3,60.00204011283855,2024-02-22 13h06.37.550402 -0500,
1,0,1,0,,,,,1,0,1,0,,,,,0,0,0,0,1502.9353675998282,,,,,,,,,,,,,,0,inactive,,,,,,,,,,,,,,,1500.071481199935,1502.9190122999717,1502.9193237998988,1507.9189185998403,1507.9189259998966,1507.9353633997962,1515.9188021998852,1515.9188021998852,1518.8855339998845,1518.9188288999721,1518.9188288999721,1518.9023639999796,3.78,5.02,378,501,8,1.2,0.75,pic-absent,0,m,1.8233709000051022,None,,,,,sub-031,46.2,45.3,46.9,COM3,2024-02-22_13h06.14.102,2024_RDpaindiscrimination_maintask,2023.2.3,60.00204011283855,2024-02-22 13h06.37.550402 -0500,
1,0,1,0,,,,,1,0,1,0,,,,,1,0,1,0,1518.9188288999721,,,,,,,,,,,,,,1,inactive,,,,,,,,,,,,,,,,,1518.9029359999113,1523.9023622998502,1523.9023695997894,1523.9189170999452,1531.902271799976,1531.902271799976,1534.868965699803,1534.9023097997997,1534.9023097997997,1534.8858397998847,4.57,4.23,457,423,8,1.2,0.75,pic-present,1,n,1.735213999869302,None,,,,,sub-031,46.2,45.3,46.9,COM3,2024-02-22_13h06.14.102,2024_RDpaindiscrimination_maintask,2023.2.3,60.00204011283855,2024-02-22 13h06.37.550402 -0500,
1,0,1,0,,,,,1,0,1,0,,,,,2,0,2,0,1534.9023097997997,,,,,,,,,,,,,,2,active,,,,,,,,,,,,,,,,,1534.8863060998265,1539.8858476998284,1539.8858548998833,1539.9023615999613,1547.8857690999284,1547.8857690999284,1550.8524392999243,1550.8857701998204,1550.8857701998204,1550.8694185998756,4.35,4.45,434,445,8,1.2,0.75,pic-present,1,n,0.7606622998137027,None,,,,,sub-031,46.2,45.3,46.9,COM3,2024-02-22_13h06.14.102,2024_RDpaindiscrimination_maintask,2023.2.3,60.00204011283855,2024-02-22 13h06.37.550402 -0500,
1,0,1,0,,,,,1,0,1,0,,,,,3,0,3,0,1550.8857701998204,,,,,,,,,,,,,,3,inactive,,,,,,,,,,,,,,,,,1550.869905399857,1555.869340899866,1555.8693486999255,1555.8858572999015,1563.869306499837,1563.869306499837,1566.8359926999547,1566.8693972998299,1566.8693972998299,1566.852857899852,4.34,4.46,434,446,8,1.2,0.75,pic-absent,0,m,0.6244212000165135,None,,,,,sub-031,46.2,45.3,46.9,COM3,2024-02-22_13h06.14.102,2024_RDpaindiscrimination_maintask,2023.2.3,60.00204011283855,2024-02-22 13h06.37.550402 -0500,
1,0,1,0,,,,,2,0,2,0,0,0,0,0,,,,,1569.1527390999254,,,,,,1566.8533310999628,1569.136280699866,,,,,,,0,inactive,46.2,1586.1367662998382,1588.939168999903,59.99999999999986,2.783,,,,1569.1366086998023,1574.1362367998809,1574.1362431999296,1574.1527137998492,1586.1695335998666,1586.136757500004,,,,,,,,,,,,,,,,,,,,,,,,,,,,,sub-031,46.2,45.3,46.9,COM3,2024-02-22_13h06.14.102,2024_RDpaindiscrimination_maintask,2023.2.3,60.00204011283855,2024-02-22 13h06.37.550402 -0500,
1,0,1,0,,,,,2,0,2,0,1,0,1,0,,,,,1588.952961199917,,,,,,,,,,,,,,1,active,46.2,1605.9368914999068,1608.1225014999509,44.00000000000002,2.167,,,,1588.939927099971,1593.9364526998252,1593.9364592998754,1593.9529765998013,1605.9698063998949,1605.93688319996,,,,,,,,,,,,,,,,,,,,,,,,,,,,,sub-031,46.2,45.3,46.9,COM3,2024-02-22_13h06.14.102,2024_RDpaindiscrimination_maintask,2023.2.3,60.00204011283855,2024-02-22 13h06.37.550402 -0500,
1,0,1,0,,,,,2,0,2,0,,,,,0,0,0,0,1610.4372643998358,,,,,,,,,,,,,,2,active,,,,,,,,,,,,,,,1608.1230798999313,1610.4201246998273,1610.4204504999798,1615.420005199965,1615.4200124999043,1615.4365130998194,1623.4200244999956,1623.4200244999956,1626.3866732998285,1626.4199643998872,1626.4199643998872,1626.4034825998824,4.56,4.24,455,424,8,1.2,0.75,pic-present,1,n,0.4862963000778109,None,,,,,sub-031,46.2,45.3,46.9,COM3,2024-02-22_13h06.14.102,2024_RDpaindiscrimination_maintask,2023.2.3,60.00204011283855,2024-02-22 13h06.37.550402 -0500,
1,0,1,0,,,,,2,0,2,0,,,,,1,0,1,0,1626.4199643998872,,,,,,,,,,,,,,3,inactive,,,,,,,,,,,,,,,,,1626.4039923998062,1631.4034984000027,1631.4035059998278,1631.4200193998404,1639.4034941999707,1639.4034941999707,1642.3701711997855,1642.4034619999584,1642.4034619999584,1642.3869922999293,3.65,5.15,365,515,8,1.2,0.75,pic-absent,0,m,1.293628100072965,None,,,,,sub-031,46.2,45.3,46.9,COM3,2024-02-22_13h06.14.102,2024_RDpaindiscrimination_maintask,2023.2.3,60.00204011283855,2024-02-22 13h06.37.550402 -0500,
1,0,1,0,,,,,2,0,2,0,,,,,2,0,2,0,1642.4034619999584,,,,,,,,,,,,,,0,active,,,,,,,,,,,,,,,,,1642.3874512999319,1647.387052499922,1647.3870599998627,1647.4034815998748,1655.3869297998026,1655.3869297998026,1658.353704399895,1658.387004399905,1658.387004399905,1658.3705474999733,3.65,5.15,365,515,8,1.2,0.75,pic-absent,1,n,0.5468320001382381,None,,,,,sub-031,46.2,45.3,46.9,COM3,2024-02-22_13h06.14.102,2024_RDpaindiscrimination_maintask,2023.2.3,60.00204011283855,2024-02-22 13h06.37.550402 -0500,
1,0,1,0,,,,,2,0,2,0,,,,,3,0,3,0,1658.387004399905,,,,,,,,,,,,,,1,active,,,,,,,,,,,,,,,,,1658.3710009998176,1663.3706344999373,1663.3706421998795,1663.3870885998476,1671.37040159991,1671.37040159991,1674.3371215998195,1674.3704337999225,1674.3704337999225,1674.3539430999663,3.95,4.85,395,484,8,1.2,0.75,pic-present,1,n,0.5514330000150949,None,,,,,sub-031,46.2,45.3,46.9,COM3,2024-02-22_13h06.14.102,2024_RDpaindiscrimination_maintask,2023.2.3,60.00204011283855,2024-02-22 13h06.37.550402 -0500,
1,0,1,0,,,,,3,0,3,0,0,0,0,0,,,,,1678.0537986999843,,,,,,1674.3544193999842,1678.0375718998257,,,,,,,2,active,46.2,1695.0378656999674,1697.2402983999345,53.499999999999915,2.079,,,,1678.0379060998093,1683.0374481999315,1683.0374555999879,1683.0538522999268,1695.1707587998826,1695.037857899908,,,,,,,,,,,,,,,,,,,,,,,,,,,,,sub-031,46.2,45.3,46.9,COM3,2024-02-22_13h06.14.102,2024_RDpaindiscrimination_maintask,2023.2.3,60.00204011283855,2024-02-22 13h06.37.550402 -0500,
1,0,1,0,,,,,3,0,3,0,1,0,1,0,,,,,1697.2540821998846,,,,,,,,,,,,,,3,inactive,46.2,1714.2380142998882,1716.3566120998003,57.4999999999999,2.1,,,,1697.2410574997775,1702.23765239981,1702.2376591998618,1702.2540517000016,1714.2708811999764,1714.238006599946,,,,,,,,,,,,,,,,,,,,,,,,,,,,,sub-031,46.2,45.3,46.9,COM3,2024-02-22_13h06.14.102,2024_RDpaindiscrimination_maintask,2023.2.3,60.00204011283855,2024-02-22 13h06.37.550402 -0500,
1,0,1,0,,,,,3,0,3,0,,,,,0,0,0,0,1718.871016799938,,,,,,,,,,,,,,0,inactive,,,,,,,,,,,,,,,1716.3571378998458,1718.854560899781,1718.854876899859,1723.8545488999225,1723.8545552999713,1723.870980499778,1731.8544602999464,1731.8544602999464,1734.821136499988,1734.8544397999067,1734.8544397999067,1734.8379775998183,3.33,5.47,333,547,8,1.2,0.75,pic-present,1,n,0.4305755998939276,None,,,,,sub-031,46.2,45.3,46.9,COM3,2024-02-22_13h06.14.102,2024_RDpaindiscrimination_maintask,2023.2.3,60.00204011283855,2024-02-22 13h06.37.550402 -0500,
1,0,1,0,,,,,3,0,3,0,,,,,1,0,1,0,1734.8544397999067,,,,,,,,,,,,,,1,active,,,,,,,,,,,,,,,,,1734.8385280999355,1739.8379554999992,1739.8379630998243,1739.8544857997913,1747.8378581998404,1747.8378581998404,1750.8046566999983,1750.8379428999033,1750.8379428999033,1750.8214751998894,3.55,5.25,355,525,8,1.2,0.75,pic-absent,1,n,0.6720517000649124,None,,,,,sub-031,46.2,45.3,46.9,COM3,2024-02-22_13h06.14.102,2024_RDpaindiscrimination_maintask,2023.2.3,60.00204011283855,2024-02-22 13h06.37.550402 -0500,
1,0,1,0,,,,,3,0,3,0,,,,,2,0,2,0,1750.8379428999033,,,,,,,,,,,,,,2,inactive,,,,,,,,,,,,,,,,,1750.8219316999894,1755.8215755999554,1755.821583099896,1755.8380378999282,1763.8214568998665,1763.8214568998665,1766.788192599779,1766.8215223997831,1766.8215223997831,1766.8051074999385,4.58,4.22,458,422,8,1.2,0.75,pic-absent,1,n,0.5329609999898821,None,,,,,sub-031,46.2,45.3,46.9,COM3,2024-02-22_13h06.14.102,2024_RDpaindiscrimination_maintask,2023.2.3,60.00204011283855,2024-02-22 13h06.37.550402 -0500,
1,0,1,0,,,,,3,0,3,0,,,,,3,0,3,0,1766.8215223997831,,,,,,,,,,,,,,3,inactive,,,,,,,,,,,,,,,,,1766.8056224999018,1771.804943599971,1771.8049509997945,1771.8214484998025,1779.804868799867,1779.804868799867,1782.7716304999776,1782.8049002999905,1782.8049002999905,1782.7884176999796,4.13,4.67,413,467,8,1.2,0.75,pic-present,1,n,0.3963494999334216,None,,,,,sub-031,46.2,45.3,46.9,COM3,2024-02-22_13h06.14.102,2024_RDpaindiscrimination_maintask,2023.2.3,60.00204011283855,2024-02-22 13h06.37.550402 -0500,
,,,,,,,,,,,,,,,,,,,,,,,,,,,,,,,,,,,,,,,,,,,,,,,,,,,,,,,,,,,,,,,,,,,,,,,,,,1782.788847199874,1784.2218783998396,1784.2218963999767,1794.2218812999781,,,,,,,,,,,
