trials.thisRepN,trials.thisTrialN,trials.thisN,trials.thisIndex,loop_test.thisRepN,loop_test.thisTrialN,loop_test.thisN,loop_test.thisIndex,loop_eval_discri.thisRepN,loop_eval_discri.thisTrialN,loop_eval_discri.thisN,loop_eval_discri.thisIndex,loop_eval.thisRepN,loop_eval.thisTrialN,loop_eval.thisN,loop_eval.thisIndex,loop_discri.thisRepN,loop_discri.thisTrialN,loop_discri.thisN,loop_discri.thisIndex,thisRow.t,notes,Set_up.started,Set_up.stopped,electrode_check.started,electrode_check.stopped,instructions_eval.started,instructions_eval.stopped,pause_5_test.started,pause_5_test.stopped,Phase_Test.started,thermode_locali.started,thermode_locali.stopped,Phase_Test.stopped,loca_thermode,condition,temp_trial_sent,eval_douleur.started,eval_douleur.stopped,ratingScale.response,ratingScale.rt,Fin_test.started,text.started,Fin_test.stopped,pause_5_EVA.started,pause_5_EVA.stopped,tâche_EVA.started,thermode_locali_EVA.started,thermode_locali_EVA.stopped,tâche_EVA.stopped,instructions_discrim.started,instructions_discrim.stopped,pause_5_pic.started,pause_5_pic.stopped,tâche_PIC.started,thermode_locali_pic.started,percu_or.started,responser.started,percu_or.stopped,responser.stopped,thermode_locali_pic.stopped,tâche_PIC.stopped,dur_plateau1,dur_plateau2,dur_plateau1_sent,dur_plateau2_sent,start_plateau_2_resp,dur_pic,dur_rise,pic_presence,pic_response,discrimin_resp.keys,discrimin_resp.rt,discrimin_resp.duration,break_entre_bloc.started,break_entre_bloc.stopped,merci.started,merci.stopped,participant,temp_flat,temp_active,temp_pic_set,com_thermode,date,expName,psychopyVersion,frameRate,expStart,
0,0,0,0,0,0,0,0,,,,,,,,,,,,,77.34299210002064,,0.008037300023715943,73.79386460001115,73.79460640001344,75.14410960001987,75.14412460001768,77.32723910000641,77.32785240001976,82.32694580001407,82.32695770001737,82.34312450001016,92.42667210000218,92.32767769999919,0,active,46.5,92.32769180001924,94.38008860000991,2.5000000000000226,1.97,,,,,,,,,,,,,,,,,,,,,,,,,,,,,,,,,,,,,,sub-006,46.5,45.1,47.5,COM3,2024-01-25_12h30.50.920,2024_RDpaindiscrimination_maintask,2023.2.3,59.98213731616594,2024-01-25 12h31.16.601839 -0500,
0,0,0,0,1,0,1,0,,,,,,,,,,,,,94.4101101999986,,,,,,,,94.38205060001928,99.3935644000012,99.39357510002446,99.41015840001637,,109.39376289999927,1,inactive,46.5,109.39377670001704,111.69685590002337,43.99999999999992,2.234,,,,,,,,,,,,,,,,,,,,,,,,,,,,,,,,,,,,,,sub-006,46.5,45.1,47.5,COM3,2024-01-25_12h30.50.920,2024_RDpaindiscrimination_maintask,2023.2.3,59.98213731616594,2024-01-25 12h31.16.601839 -0500,
0,0,0,0,2,0,2,0,,,,,,,,,,,,,111.72724460001336,,,,,,,,111.69861110000056,116.71062830000301,116.71063870002399,116.72722490000888,,126.71084760001395,2,inactive,46.5,126.71086200000718,129.03023950001807,57.49999999999997,2.249,,,,,,,,,,,,,,,,,,,,,,,,,,,,,,,,,,,,,,sub-006,46.5,45.1,47.5,COM3,2024-01-25_12h30.50.920,2024_RDpaindiscrimination_maintask,2023.2.3,59.98213731616594,2024-01-25 12h31.16.601839 -0500,
0,0,0,0,3,0,3,0,,,,,,,,,,,,,129.06098200002452,,,,,,,,129.0319610000006,134.04436100000748,134.0443716000009,134.06097400002182,,144.0445532000158,3,active,46.5,144.04456700000446,146.24788410001202,35.50000000000005,2.133,,,,,,,,,,,,,,,,,,,,,,,,,,,,,,,,,,,,,,sub-006,46.5,45.1,47.5,COM3,2024-01-25_12h30.50.920,2024_RDpaindiscrimination_maintask,2023.2.3,59.98213731616594,2024-01-25 12h31.16.601839 -0500,
0,0,0,0,4,0,4,0,,,,,,,,,,,,,146.2612771000131,,,,,,,,146.2488127000106,151.24529290001374,151.2453041000117,151.26147080000374,161.32826830001432,161.24591590001364,0,inactive,46.5,161.24593010000535,163.21450160001405,47.49999999999997,1.899,,,,,,,,,,,,,,,,,,,,,,,,,,,,,,,,,,,,,,sub-006,46.5,45.1,47.5,COM3,2024-01-25_12h30.50.920,2024_RDpaindiscrimination_maintask,2023.2.3,59.98213731616594,2024-01-25 12h31.16.601839 -0500,
0,0,0,0,5,0,5,0,,,,,,,,,,,,,163.24497170001268,,,,,,,,163.21629480001866,168.2284962000267,168.2285068000201,168.24507580001955,,178.22869920000085,1,inactive,46.5,178.22871300001862,180.7262171000184,63.99999999999992,2.428,,,,,,,,,,,,,,,,,,,,,,,,,,,,,,,,,,,,,,sub-006,46.5,45.1,47.5,COM3,2024-01-25_12h30.50.920,2024_RDpaindiscrimination_maintask,2023.2.3,59.98213731616594,2024-01-25 12h31.16.601839 -0500,
0,0,0,0,6,0,6,0,,,,,,,,,,,,,180.74537830002373,,,,,,,,180.72685270002694,185.72887510000146,185.72888720000628,185.7454934999987,,195.72911450001993,2,active,46.5,195.72912870001164,197.54770900000585,24.499999999999986,1.749,,,,,,,,,,,,,,,,,,,,,,,,,,,,,,,,,,,,,,sub-006,46.5,45.1,47.5,COM3,2024-01-25_12h30.50.920,2024_RDpaindiscrimination_maintask,2023.2.3,59.98213731616594,2024-01-25 12h31.16.601839 -0500,
0,0,0,0,7,0,7,0,,,,,,,,,,,,,197.56243879999965,,,,,,,,197.54832120001083,202.5463811000227,202.54639290002524,202.56255030000466,212.62944870002684,212.54711000001407,3,active,46.5,212.54712420000578,214.29965610001818,32.000000000000064,1.683,,,,,,,,,,,,,,,,,,,,,,,,,,,,,,,,,,,,,,sub-006,46.5,45.1,47.5,COM3,2024-01-25_12h30.50.920,2024_RDpaindiscrimination_maintask,2023.2.3,59.98213731616594,2024-01-25 12h31.16.601839 -0500,
0,0,0,0,8,0,8,0,,,,,,,,,,,,,214.32965160001186,,,,,,,,214.3014097000123,219.31301270000404,219.313023900002,219.32959750000737,,229.31320880001294,0,inactive,46.5,229.31322250000085,231.66458880002028,47.99999999999997,2.281,,,,,,,,,,,,,,,,,,,,,,,,,,,,,,,,,,,,,,sub-006,46.5,45.1,47.5,COM3,2024-01-25_12h30.50.920,2024_RDpaindiscrimination_maintask,2023.2.3,59.98213731616594,2024-01-25 12h31.16.601839 -0500,
0,0,0,0,9,0,9,0,,,,,,,,,,,,,231.679889800027,,,,,,,,231.6651766000141,236.66391830000794,236.66392970000743,236.6801405000151,246.74690620001638,246.66454300002079,1,active,46.5,246.66455730001326,248.26642900001025,23.500000000000057,1.532,,,,,,,,,,,,,,,,,,,,,,,,,,,,,,,,,,,,,,sub-006,46.5,45.1,47.5,COM3,2024-01-25_12h30.50.920,2024_RDpaindiscrimination_maintask,2023.2.3,59.98213731616594,2024-01-25 12h31.16.601839 -0500,
0,0,0,0,10,0,10,0,,,,,,,,,,,,,248.2969337000104,,,,,,,,248.2681939000031,253.28045610000845,253.28046700000414,253.29719550002483,,263.28065690002404,2,active,46.5,263.28067090001423,265.0167704000196,36.00000000000005,1.666,,,,,,,,,,,,,,,,,,,,,,,,,,,,,,,,,,,,,,sub-006,46.5,45.1,47.5,COM3,2024-01-25_12h30.50.920,2024_RDpaindiscrimination_maintask,2023.2.3,59.98213731616594,2024-01-25 12h31.16.601839 -0500,
0,0,0,0,11,0,11,0,,,,,,,,,,,,,265.0306554000126,,,,,,,,265.01735780001036,270.0146240000031,270.0146359000064,270.03076610001153,280.09767660000944,280.0153236000042,3,inactive,46.5,280.0153376000235,282.65098660002695,61.00000000000007,2.566,,,,,,,,,,,,,,,,,,,,,,,,,,,,,,,,,,,,,,sub-006,46.5,45.1,47.5,COM3,2024-01-25_12h30.50.920,2024_RDpaindiscrimination_maintask,2023.2.3,59.98213731616594,2024-01-25 12h31.16.601839 -0500,
0,0,0,0,12,0,12,0,,,,,,,,,,,,,282.68108760000905,,,,,,,,282.65273820000584,287.66455890002544,287.6645696000196,287.6811752000067,,297.6647618999996,0,active,46.5,297.66477590001887,299.1525116000266,20.0,1.418,,,,,,,,,,,,,,,,,,,,,,,,,,,,,,,,,,,,,,sub-006,46.5,45.1,47.5,COM3,2024-01-25_12h30.50.920,2024_RDpaindiscrimination_maintask,2023.2.3,59.98213731616594,2024-01-25 12h31.16.601839 -0500,
0,0,0,0,13,0,13,0,,,,,,,,,,,,,299.18144949999987,,,,,,,,299.1542620000255,304.1649610000022,304.16497199999867,304.1815403000219,,314.16517800002475,1,active,46.5,314.16519200001494,316.0682063999993,29.50000000000007,1.834,,,,,,,,,,,,,,,,,,,,,,,,,,,,,,,,,,,,,,sub-006,46.5,45.1,47.5,COM3,2024-01-25_12h30.50.920,2024_RDpaindiscrimination_maintask,2023.2.3,59.98213731616594,2024-01-25 12h31.16.601839 -0500,
0,0,0,0,14,0,14,0,,,,,,,,,,,,,316.09851950002485,,,,,,,,316.06991760001983,321.0819735000259,321.0819842000201,321.09861440001987,,331.0822162000113,2,inactive,46.5,331.0822298999992,332.7345483000099,75.49999999999999,1.582,,,,,,,,,,,,,,,,,,,,,,,,,,,,,,,,,,,,,,sub-006,46.5,45.1,47.5,COM3,2024-01-25_12h30.50.920,2024_RDpaindiscrimination_maintask,2023.2.3,59.98213731616594,2024-01-25 12h31.16.601839 -0500,
0,0,0,0,15,0,15,0,,,,,,,,,,,,,332.7488697000081,,,,,,,,332.73517200001515,337.7328685000248,337.73288000002503,337.74897900002543,347.8158842000121,347.73354830002063,3,inactive,46.5,347.7335624000116,350.5017495000211,65.49999999999984,2.699,,,,,,,,,,,,,,,,,,,,,,,,,,,,,,,,,,,,,,sub-006,46.5,45.1,47.5,COM3,2024-01-25_12h30.50.920,2024_RDpaindiscrimination_maintask,2023.2.3,59.98213731616594,2024-01-25 12h31.16.601839 -0500,
0,0,0,0,,,,,0,0,0,0,0,0,0,0,,,,,364.89962000001105,,,,,,364.0011948000174,364.88402220001444,,,,,,,0,inactive,46.5,379.8842699000088,382.21870490000583,70.9999999999999,2.264,350.5023412000155,350.51593610001146,364.00051110002096,364.88461310000275,369.88355290002073,369.8835661000048,369.8997368000273,379.96662500000093,379.8842560000194,,,,,,,,,,,,,,,,,,,,,,,,,,,,,sub-006,46.5,45.1,47.5,COM3,2024-01-25_12h30.50.920,2024_RDpaindiscrimination_maintask,2023.2.3,59.98213731616594,2024-01-25 12h31.16.601839 -0500,
0,0,0,0,,,,,0,0,0,0,1,0,1,0,,,,,382.23333510002703,,,,,,,,,,,,,,1,active,46.5,397.2179787000059,399.5532653000264,43.99999999999992,2.265,,,,382.2192493000184,387.2172820000269,387.2172944000049,387.2334527000203,397.3003717000247,397.2179662999988,,,,,,,,,,,,,,,,,,,,,,,,,,,,,sub-006,46.5,45.1,47.5,COM3,2024-01-25_12h30.50.920,2024_RDpaindiscrimination_maintask,2023.2.3,59.98213731616594,2024-01-25 12h31.16.601839 -0500,
0,0,0,0,,,,,0,0,0,0,,,,,0,0,0,0,404.0505235000164,,,,,,,,,,,,,,2,active,,,,,,,,,,,,,,,399.55423200002406,404.0347669000039,404.03541590002715,409.03444620000664,409.034463900025,409.0506268000172,416.5341247000033,416.5341247000033,419.534192000021,419.534192000021,420.00088630002574,419.9848081000091,3.56,4.49,356,449,7.5,1.2,0.75,pic-absent,1,m,1.0109002999961376,None,,,,,sub-006,46.5,45.1,47.5,COM3,2024-01-25_12h30.50.920,2024_RDpaindiscrimination_maintask,2023.2.3,59.98213731616594,2024-01-25 12h31.16.601839 -0500,
0,0,0,0,,,,,0,0,0,0,,,,,1,0,1,0,420.00088630002574,,,,,,,,,,,,,,3,active,,,,,,,,,,,,,,,,,419.9867840000079,424.9848106999998,424.98482350000995,425.0010021000053,432.5011408000137,432.5011408000137,435.50124950002646,435.50124950002646,435.9512544000172,435.9351008000085,3.29,4.76,329,476,7.5,1.2,0.75,pic-absent,0,n,0.4712510999816004,None,,,,,sub-006,46.5,45.1,47.5,COM3,2024-01-25_12h30.50.920,2024_RDpaindiscrimination_maintask,2023.2.3,59.98213731616594,2024-01-25 12h31.16.601839 -0500,
0,0,0,0,,,,,0,0,0,0,,,,,2,0,2,0,435.9512544000172,,,,,,,,,,,,,,0,inactive,,,,,,,,,,,,,,,,,435.93665129999863,440.9351874999993,440.9352020000224,440.95135130002745,448.45152440000675,448.45152440000675,451.4516079000023,451.4516079000023,451.90161760000046,451.8854324000131,3.29,4.76,329,476,7.5,1.2,0.75,pic-present,1,m,0.4646577999810688,None,,,,,sub-006,46.5,45.1,47.5,COM3,2024-01-25_12h30.50.920,2024_RDpaindiscrimination_maintask,2023.2.3,59.98213731616594,2024-01-25 12h31.16.601839 -0500,
0,0,0,0,,,,,0,0,0,0,,,,,3,0,3,0,451.90161760000046,,,,,,,,,,,,,,1,active,,,,,,,,,,,,,,,,,451.8869932000234,456.88556320001953,456.8855762000021,456.90173350000987,464.4018706000061,464.4018706000061,467.4019746000122,467.4019746000122,467.8519664000196,467.83583180001006,4.14,3.91,413,391,7.5,1.2,0.75,pic-absent,1,m,0.5062044000078458,None,,,,,sub-006,46.5,45.1,47.5,COM3,2024-01-25_12h30.50.920,2024_RDpaindiscrimination_maintask,2023.2.3,59.98213731616594,2024-01-25 12h31.16.601839 -0500,
0,0,0,0,,,,,1,0,1,0,0,0,0,0,,,,,470.91870570002357,,,,,,467.83741760000703,470.90302040000097,,,,,,,2,active,46.5,485.9033963000111,487.8557203000237,51.5000000000001,1.882,,,,470.90363160002744,475.9026889000088,475.9027013000159,475.9188192000147,485.98573700001,485.90338530001463,,,,,,,,,,,,,,,,,,,,,,,,,,,,,sub-006,46.5,45.1,47.5,COM3,2024-01-25_12h30.50.920,2024_RDpaindiscrimination_maintask,2023.2.3,59.98213731616594,2024-01-25 12h31.16.601839 -0500,
0,0,0,0,,,,,1,0,1,0,1,0,1,0,,,,,487.8858003000205,,,,,,,,,,,,,,3,inactive,46.5,502.8695209000143,504.4553514000145,51.50000000000003,1.516,,,,487.85732680000365,492.8692990000127,492.8693103000114,492.8858962000231,,502.869509000011,,,,,,,,,,,,,,,,,,,,,,,,,,,,,sub-006,46.5,45.1,47.5,COM3,2024-01-25_12h30.50.920,2024_RDpaindiscrimination_maintask,2023.2.3,59.98213731616594,2024-01-25 12h31.16.601839 -0500,
0,0,0,0,,,,,1,0,1,0,,,,,0,0,0,0,507.3362270000216,,,,,,,,,,,,,,0,inactive,,,,,,,,,,,,,,,504.45567980001215,507.3205498000025,507.3211927000084,512.3201756000053,512.3201884000155,512.3363435000065,519.8198249000125,519.8198249000125,522.8199168000137,522.8199168000137,523.286597600003,523.2706834000128,4.25,3.8,425,380,7.5,1.2,0.75,pic-present,1,m,0.3842358999827411,None,,,,,sub-006,46.5,45.1,47.5,COM3,2024-01-25_12h30.50.920,2024_RDpaindiscrimination_maintask,2023.2.3,59.98213731616594,2024-01-25 12h31.16.601839 -0500,
0,0,0,0,,,,,1,0,1,0,,,,,1,0,1,0,523.286597600003,,,,,,,,,,,,,,1,active,,,,,,,,,,,,,,,,,523.2749382000184,528.2705589000252,528.2705722000101,528.286694200011,535.7868614000035,535.7868614000035,538.7869492000027,538.7869492000027,539.2369420000177,539.2207998000085,3.74,4.31,374,430,7.5,1.2,0.75,pic-present,1,m,0.5494655999937095,None,,,,,sub-006,46.5,45.1,47.5,COM3,2024-01-25_12h30.50.920,2024_RDpaindiscrimination_maintask,2023.2.3,59.98213731616594,2024-01-25 12h31.16.601839 -0500,
0,0,0,0,,,,,1,0,1,0,,,,,2,0,2,0,539.2369420000177,,,,,,,,,,,,,,2,inactive,,,,,,,,,,,,,,,,,539.2223596000113,544.220924400026,544.2209370000055,544.2370751000126,551.7372243000136,551.7372243000136,554.737294200022,554.737294200022,555.1873216000095,555.1711456000048,4.24,3.81,424,381,7.5,1.2,0.75,pic-absent,0,n,0.6869204000104219,None,,,,,sub-006,46.5,45.1,47.5,COM3,2024-01-25_12h30.50.920,2024_RDpaindiscrimination_maintask,2023.2.3,59.98213731616594,2024-01-25 12h31.16.601839 -0500,
0,0,0,0,,,,,1,0,1,0,,,,,3,0,3,0,555.1873216000095,,,,,,,,,,,,,,3,active,,,,,,,,,,,,,,,,,555.172710600018,560.1712553000252,560.1712685000093,560.1874413000187,567.687590800022,567.687590800022,570.6876587000152,570.6876587000152,571.1376890000247,571.1215971000202,3.84,4.21,384,421,7.5,1.2,0.75,pic-present,1,m,0.352404299977934,None,,,,,sub-006,46.5,45.1,47.5,COM3,2024-01-25_12h30.50.920,2024_RDpaindiscrimination_maintask,2023.2.3,59.98213731616594,2024-01-25 12h31.16.601839 -0500,
0,0,0,0,,,,,2,0,2,0,0,0,0,0,,,,,573.8877505000273,,,,,,571.1231848000025,573.872245400009,,,,,,,0,active,46.5,588.8881665000226,591.1899231999996,42.0000000000001,2.232,,,,573.872863000026,578.871693699999,578.8717064000084,578.904522100027,,588.8881555000262,,,,,,,,,,,,,,,,,,,,,,,,,,,,,sub-006,46.5,45.1,47.5,COM3,2024-01-25_12h30.50.920,2024_RDpaindiscrimination_maintask,2023.2.3,59.98213731616594,2024-01-25 12h31.16.601839 -0500,
0,0,0,0,,,,,2,0,2,0,1,0,1,0,,,,,591.2048160000122,,,,,,,,,,,,,,1,inactive,46.5,606.1893868000188,607.5572268000105,56.49999999999994,1.298,,,,591.1904667000053,596.1888694000081,596.1888816000137,596.2049232000136,606.2718311000208,606.1893751000171,,,,,,,,,,,,,,,,,,,,,,,,,,,,,sub-006,46.5,45.1,47.5,COM3,2024-01-25_12h30.50.920,2024_RDpaindiscrimination_maintask,2023.2.3,59.98213731616594,2024-01-25 12h31.16.601839 -0500,
0,0,0,0,,,,,2,0,2,0,,,,,0,0,0,0,609.355217400007,,,,,,,,,,,,,,2,inactive,,,,,,,,,,,,,,,607.5575967000041,609.3394831000187,609.3401299000252,614.3391612000123,614.3391739000217,614.3553585000045,621.8388348000008,621.8388348000008,624.8389211000176,624.8389211000176,625.3056023000099,625.2894055000215,4.0,4.05,400,405,7.5,1.2,0.75,pic-absent,0,n,0.5136537000071257,None,,,,,sub-006,46.5,45.1,47.5,COM3,2024-01-25_12h30.50.920,2024_RDpaindiscrimination_maintask,2023.2.3,59.98213731616594,2024-01-25 12h31.16.601839 -0500,
0,0,0,0,,,,,2,0,2,0,,,,,1,0,1,0,625.3056023000099,,,,,,,,,,,,,,3,inactive,,,,,,,,,,,,,,,,,625.291127000004,630.289569000015,630.2895821000275,630.3056969000027,637.8058807000052,637.8058807000052,640.8059545000142,640.8059545000142,641.2559529000137,641.2397855000163,3.47,4.58,347,458,7.5,1.2,0.75,pic-present,1,m,0.30667580000590533,None,,,,,sub-006,46.5,45.1,47.5,COM3,2024-01-25_12h30.50.920,2024_RDpaindiscrimination_maintask,2023.2.3,59.98213731616594,2024-01-25 12h31.16.601839 -0500,
0,0,0,0,,,,,2,0,2,0,,,,,2,0,2,0,641.2559529000137,,,,,,,,,,,,,,0,active,,,,,,,,,,,,,,,,,641.241327900003,646.2399107000092,646.2399233000178,646.2560831000155,653.7562337999989,653.7562337999989,656.7563224000041,656.7563224000041,657.2063114000193,657.1901575000084,3.95,4.1,395,409,7.5,1.2,0.75,pic-absent,0,n,0.5360787000099663,None,,,,,sub-006,46.5,45.1,47.5,COM3,2024-01-25_12h30.50.920,2024_RDpaindiscrimination_maintask,2023.2.3,59.98213731616594,2024-01-25 12h31.16.601839 -0500,
0,0,0,0,,,,,2,0,2,0,,,,,3,0,3,0,657.2063114000193,,,,,,,,,,,,,,1,inactive,,,,,,,,,,,,,,,,,657.1917283000075,662.1902583000192,662.190271200001,662.2064471000049,669.7066019000195,669.7066019000195,672.7066702000157,672.7066702000157,673.1566972,673.1405010000162,3.58,4.47,358,447,7.5,1.2,0.75,pic-absent,0,n,0.3893116999824997,None,,,,,sub-006,46.5,45.1,47.5,COM3,2024-01-25_12h30.50.920,2024_RDpaindiscrimination_maintask,2023.2.3,59.98213731616594,2024-01-25 12h31.16.601839 -0500,
0,0,0,0,,,,,3,0,3,0,0,0,0,0,,,,,675.2067438000231,,,,,,673.1420928000007,675.1911061000137,,,,,,,2,inactive,46.5,690.1914071000065,692.5094212000258,57.999999999999936,2.162,,,,675.1917399000085,680.1906677000225,680.1906799999997,680.2068419000134,690.3570865000074,690.1913958000077,,,,,,,,,,,,,,,,,,,,,,,,,,,,,sub-006,46.5,45.1,47.5,COM3,2024-01-25_12h30.50.920,2024_RDpaindiscrimination_maintask,2023.2.3,59.98213731616594,2024-01-25 12h31.16.601839 -0500,
0,0,0,0,,,,,3,0,3,0,1,0,1,0,,,,,692.5404778000084,,,,,,,,,,,,,,3,active,46.5,707.5242319000245,710.1284218000073,36.99999999999995,2.535,,,,692.5110282000096,697.5239729000023,697.523984600004,697.5405752000224,,707.5242201000219,,,,,,,,,,,,,,,,,,,,,,,,,,,,,sub-006,46.5,45.1,47.5,COM3,2024-01-25_12h30.50.920,2024_RDpaindiscrimination_maintask,2023.2.3,59.98213731616594,2024-01-25 12h31.16.601839 -0500,
0,0,0,0,,,,,3,0,3,0,,,,,0,0,0,0,711.857570000022,,,,,,,,,,,,,,0,active,,,,,,,,,,,,,,,710.1289286000247,711.8418301000202,711.8424768000259,716.841528000019,716.8415406999993,716.8576809000224,724.3411889000272,724.3411889000272,727.341258600005,727.341258600005,727.8079351000197,727.791784800007,3.71,4.34,371,434,7.5,1.2,0.75,pic-present,1,m,0.30230010001105256,None,,,,,sub-006,46.5,45.1,47.5,COM3,2024-01-25_12h30.50.920,2024_RDpaindiscrimination_maintask,2023.2.3,59.98213731616594,2024-01-25 12h31.16.601839 -0500,
0,0,0,0,,,,,3,0,3,0,,,,,1,0,1,0,727.8079351000197,,,,,,,,,,,,,,1,inactive,,,,,,,,,,,,,,,,,727.7934846999997,732.7918939000228,732.7919065000024,732.8080505000253,740.3082366000162,740.3082366000162,743.3082916999992,743.3082916999992,743.7582812000182,743.7421608000004,4.25,3.8,425,380,7.5,1.2,0.75,pic-absent,0,n,0.47566190001089126,None,,,,,sub-006,46.5,45.1,47.5,COM3,2024-01-25_12h30.50.920,2024_RDpaindiscrimination_maintask,2023.2.3,59.98213731616594,2024-01-25 12h31.16.601839 -0500,
0,0,0,0,,,,,3,0,3,0,,,,,2,0,2,0,743.7582812000182,,,,,,,,,,,,,,2,active,,,,,,,,,,,,,,,,,743.7437063000107,748.7422420000075,748.7422549000185,748.7584166000015,756.258585500007,756.258585500007,759.2586594000168,759.2586594000168,759.7086752000032,759.6925201000122,4.01,4.04,401,404,7.5,1.2,0.75,pic-present,1,m,0.32964360000914894,None,,,,,sub-006,46.5,45.1,47.5,COM3,2024-01-25_12h30.50.920,2024_RDpaindiscrimination_maintask,2023.2.3,59.98213731616594,2024-01-25 12h31.16.601839 -0500,
0,0,0,0,,,,,3,0,3,0,,,,,3,0,3,0,759.7086752000032,,,,,,,,,,,,,,3,inactive,,,,,,,,,,,,,,,,,759.6940731000213,764.6926308000111,764.6926439000235,764.7087805000192,772.2089694000024,772.2089694000024,775.2090226,775.2090226,775.6923838000221,775.6428589000134,3.88,4.17,388,417,7.5,1.2,0.75,pic-present,1,m,0.3272192000003997,None,,,,,sub-006,46.5,45.1,47.5,COM3,2024-01-25_12h30.50.920,2024_RDpaindiscrimination_maintask,2023.2.3,59.98213731616594,2024-01-25 12h31.16.601839 -0500,
1,0,1,0,0,0,0,0,,,,,,,,,,,,,840.1271957000135,,,,836.1956116000074,838.2614349000214,838.2614502000215,840.1113942000084,840.1120163000014,845.1111007000145,845.111112500017,845.1272930000268,855.2108759000257,855.1118404000008,0,inactive,46.5,855.1118541000178,857.0641065000091,64.00000000000006,1.872,,,,,,,,,,,,,,,,,,,,,,,,,,,,,,,,,,775.6442663000198,836.1949361000152,,,sub-006,46.5,45.1,47.5,COM3,2024-01-25_12h30.50.920,2024_RDpaindiscrimination_maintask,2023.2.3,59.98213731616594,2024-01-25 12h31.16.601839 -0500,
1,0,1,0,1,0,1,0,,,,,,,,,,,,,857.0942704000045,,,,,,,,857.0660174000077,862.077766900009,862.0777776000032,862.0943624000065,,872.0779651000048,1,active,46.5,872.0779788000218,874.0633916000079,17.500000000000103,1.916,,,,,,,,,,,,,,,,,,,,,,,,,,,,,,,,,,,,,,sub-006,46.5,45.1,47.5,COM3,2024-01-25_12h30.50.920,2024_RDpaindiscrimination_maintask,2023.2.3,59.98213731616594,2024-01-25 12h31.16.601839 -0500,
1,0,1,0,2,0,2,0,,,,,,,,,,,,,874.0779768000066,,,,,,,,874.0639669000229,879.0618969000061,879.0619087000086,879.0780690000101,889.1449862000009,889.0627111000067,2,active,46.5,889.0627254999999,890.3809043000219,30.0,1.248,,,,,,,,,,,,,,,,,,,,,,,,,,,,,,,,,,,,,,sub-006,46.5,45.1,47.5,COM3,2024-01-25_12h30.50.920,2024_RDpaindiscrimination_maintask,2023.2.3,59.98213731616594,2024-01-25 12h31.16.601839 -0500,
1,0,1,0,3,0,3,0,,,,,,,,,,,,,890.3950120000227,,,,,,,,890.3826653000142,895.3789380000089,895.3789501000138,895.395131199999,905.4620256000198,905.3796593000006,3,inactive,46.5,905.3796733000199,907.315322600014,65.50000000000006,1.866,,,,,,,,,,,,,,,,,,,,,,,,,,,,,,,,,,,,,,sub-006,46.5,45.1,47.5,COM3,2024-01-25_12h30.50.920,2024_RDpaindiscrimination_maintask,2023.2.3,59.98213731616594,2024-01-25 12h31.16.601839 -0500,
1,0,1,0,4,0,4,0,,,,,,,,,,,,,907.3454239999992,,,,,,,,907.3170111000072,912.3289133000071,912.3289240000013,912.3455014000065,,922.3291058000177,0,active,46.5,922.3291194000049,924.9816847000038,23.5000000000002,2.582,,,,,,,,,,,,,,,,,,,,,,,,,,,,,,,,,,,,,,sub-006,46.5,45.1,47.5,COM3,2024-01-25_12h30.50.920,2024_RDpaindiscrimination_maintask,2023.2.3,59.98213731616594,2024-01-25 12h31.16.601839 -0500,
1,0,1,0,5,0,5,0,,,,,,,,,,,,,924.9958068999986,,,,,,,,924.9822590000113,929.9797266000242,929.9797385000275,929.9959241000179,940.062819600018,939.980437500024,1,inactive,46.5,939.9804519000172,941.398354600009,70.0,1.347,,,,,,,,,,,,,,,,,,,,,,,,,,,,,,,,,,,,,,sub-006,46.5,45.1,47.5,COM3,2024-01-25_12h30.50.920,2024_RDpaindiscrimination_maintask,2023.2.3,59.98213731616594,2024-01-25 12h31.16.601839 -0500,
1,0,1,0,6,0,6,0,,,,,,,,,,,,,941.4128234000236,,,,,,,,941.3989362000138,946.3967876000097,946.396799500013,946.412945100019,956.4798628000135,956.3975283000036,2,active,46.5,956.3975421000214,958.515301300009,26.500000000000085,2.048,,,,,,,,,,,,,,,,,,,,,,,,,,,,,,,,,,,,,,sub-006,46.5,45.1,47.5,COM3,2024-01-25_12h30.50.920,2024_RDpaindiscrimination_maintask,2023.2.3,59.98213731616594,2024-01-25 12h31.16.601839 -0500,
1,0,1,0,7,0,7,0,,,,,,,,,,,,,958.5298972000019,,,,,,,,958.5159182000207,963.5138666000275,963.513878400001,963.53004100002,973.5969022000208,973.5145527000132,3,inactive,46.5,973.5145669000049,975.6327932999993,73.49999999999984,2.048,,,,,,,,,,,,,,,,,,,,,,,,,,,,,,,,,,,,,,sub-006,46.5,45.1,47.5,COM3,2024-01-25_12h30.50.920,2024_RDpaindiscrimination_maintask,2023.2.3,59.98213731616594,2024-01-25 12h31.16.601839 -0500,
1,0,1,0,8,0,8,0,,,,,,,,,,,,,975.6637599000242,,,,,,,,975.6345136000018,980.6471095000161,980.6471208000148,980.6637247000181,,990.6473653000139,0,active,46.5,990.6473803000117,991.9997299000097,33.50000000000006,1.283,,,,,,,,,,,,,,,,,,,,,,,,,,,,,,,,,,,,,,sub-006,46.5,45.1,47.5,COM3,2024-01-25_12h30.50.920,2024_RDpaindiscrimination_maintask,2023.2.3,59.98213731616594,2024-01-25 12h31.16.601839 -0500,
1,0,1,0,9,0,9,0,,,,,,,,,,,,,992.0307030000258,,,,,,,,992.0014566000027,997.0141737000085,997.0141844000027,997.0307856000145,,1007.0144007000199,1,inactive,46.5,1007.0144145000086,1008.2178948000073,60.0,1.134,,,,,,,,,,,,,,,,,,,,,,,,,,,,,,,,,,,,,,sub-006,46.5,45.1,47.5,COM3,2024-01-25_12h30.50.920,2024_RDpaindiscrimination_maintask,2023.2.3,59.98213731616594,2024-01-25 12h31.16.601839 -0500,
1,0,1,0,10,0,10,0,,,,,,,,,,,,,1008.2478235000162,,,,,,,,1008.2196343000105,1013.2312248000235,1013.2312355000176,1013.247821500001,,1023.2314471999998,2,inactive,46.5,1023.2314608000161,1024.4013403000135,80.99999999999997,1.1,,,,,,,,,,,,,,,,,,,,,,,,,,,,,,,,,,,,,,sub-006,46.5,45.1,47.5,COM3,2024-01-25_12h30.50.920,2024_RDpaindiscrimination_maintask,2023.2.3,59.98213731616594,2024-01-25 12h31.16.601839 -0500,
1,0,1,0,11,0,11,0,,,,,,,,,,,,,1024.431426300027,,,,,,,,1024.4030626000022,1029.4149131000158,1029.414924200013,1029.4315304000047,,1039.4151310000161,3,active,46.5,1039.415145100007,1040.6338749999995,22.00000000000003,1.149,,,,,,,,,,,,,,,,,,,,,,,,,,,,,,,,,,,,,,sub-006,46.5,45.1,47.5,COM3,2024-01-25_12h30.50.920,2024_RDpaindiscrimination_maintask,2023.2.3,59.98213731616594,2024-01-25 12h31.16.601839 -0500,
1,0,1,0,12,0,12,0,,,,,,,,,,,,,1040.648448700027,,,,,,,,1040.6346005000232,1045.6324363000167,1045.6324476000154,1045.6486011000234,1055.7154674000049,1055.6330266000004,0,inactive,46.5,1055.633040900022,1058.6184961000108,87.49999999999989,2.916,,,,,,,,,,,,,,,,,,,,,,,,,,,,,,,,,,,,,,sub-006,46.5,45.1,47.5,COM3,2024-01-25_12h30.50.920,2024_RDpaindiscrimination_maintask,2023.2.3,59.98213731616594,2024-01-25 12h31.16.601839 -0500,
1,0,1,0,13,0,13,0,,,,,,,,,,,,,1058.6321729000192,,,,,,,,1058.6190856000176,1063.6161276000203,1063.616139300022,1063.632296100026,1073.6992093000154,1073.6168776000268,1,active,46.5,1073.616891600017,1075.768279800017,26.500000000000156,2.081,,,,,,,,,,,,,,,,,,,,,,,,,,,,,,,,,,,,,,sub-006,46.5,45.1,47.5,COM3,2024-01-25_12h30.50.920,2024_RDpaindiscrimination_maintask,2023.2.3,59.98213731616594,2024-01-25 12h31.16.601839 -0500,
1,0,1,0,14,0,14,0,,,,,,,,,,,,,1075.7825810000068,,,,,,,,1075.7688997000223,1080.7666301999998,1080.7666417,1080.799380100012,,1090.782970100001,2,inactive,46.5,1090.7829840000195,1092.601848900027,70.49999999999989,1.749,,,,,,,,,,,,,,,,,,,,,,,,,,,,,,,,,,,,,,sub-006,46.5,45.1,47.5,COM3,2024-01-25_12h30.50.920,2024_RDpaindiscrimination_maintask,2023.2.3,59.98213731616594,2024-01-25 12h31.16.601839 -0500,
1,0,1,0,15,0,15,0,,,,,,,,,,,,,1092.616312500002,,,,,,,,1092.6024558000208,1097.6003696000262,1097.6003812000272,1097.6165312000085,1107.683290200017,1107.6009859000042,3,active,46.5,1107.6010002000257,1109.536724000005,16.000000000000103,1.866,,,,,,,,,,,,,,,,,,,,,,,,,,,,,,,,,,,,,,sub-006,46.5,45.1,47.5,COM3,2024-01-25_12h30.50.920,2024_RDpaindiscrimination_maintask,2023.2.3,59.98213731616594,2024-01-25 12h31.16.601839 -0500,
1,0,1,0,,,,,0,0,0,0,0,0,0,0,,,,,1116.4501816000266,,,,,,1114.6850779000088,1116.43460030001,,,,,,,0,active,46.5,1131.4347974000266,1132.8699609000178,40.000000000000036,1.365,1109.5377811000217,1109.5501737000013,1114.684401000006,1116.435209600022,1121.4341377000092,1121.4341510000231,1121.4503013000067,1131.5172011000104,1131.4347847000172,,,,,,,,,,,,,,,,,,,,,,,,,,,,,sub-006,46.5,45.1,47.5,COM3,2024-01-25_12h30.50.920,2024_RDpaindiscrimination_maintask,2023.2.3,59.98213731616594,2024-01-25 12h31.16.601839 -0500,
1,0,1,0,,,,,0,0,0,0,1,0,1,0,,,,,1132.9006831000152,,,,,,,,,,,,,,1,inactive,46.5,1147.884315400006,1149.254021300003,60.000000000000036,1.3,,,,1132.8715323000215,1137.8840894000023,1137.884102400014,1137.9006726000225,,1147.8843018000189,,,,,,,,,,,,,,,,,,,,,,,,,,,,,sub-006,46.5,45.1,47.5,COM3,2024-01-25_12h30.50.920,2024_RDpaindiscrimination_maintask,2023.2.3,59.98213731616594,2024-01-25 12h31.16.601839 -0500,
1,0,1,0,,,,,0,0,0,0,,,,,0,0,0,0,1150.6677876000176,,,,,,,,,,,,,,2,inactive,,,,,,,,,,,,,,,1149.255001500016,1150.6521889000142,1150.6529795000097,1155.6515579000115,1155.6515713000263,1155.6677486000117,1163.1512283000047,1163.1512283000047,1166.1512963999994,1166.1512963999994,1166.6179802000115,1166.6017899000144,3.59,4.46,359,446,7.5,1.2,0.75,pic-present,1,m,0.3753697999927681,None,,,,,sub-006,46.5,45.1,47.5,COM3,2024-01-25_12h30.50.920,2024_RDpaindiscrimination_maintask,2023.2.3,59.98213731616594,2024-01-25 12h31.16.601839 -0500,
1,0,1,0,,,,,0,0,0,0,,,,,1,0,1,0,1166.6179802000115,,,,,,,,,,,,,,3,inactive,,,,,,,,,,,,,,,,,1166.6035039000271,1171.6019259000022,1171.6019391000154,1171.6182141000172,1179.1182396000077,1179.1182396000077,1182.1183292000205,1182.1183292000205,1182.5683568000095,1182.552187400026,4.01,4.04,401,404,7.5,1.2,0.75,pic-absent,0,n,0.3085684000106994,None,,,,,sub-006,46.5,45.1,47.5,COM3,2024-01-25_12h30.50.920,2024_RDpaindiscrimination_maintask,2023.2.3,59.98213731616594,2024-01-25 12h31.16.601839 -0500,
1,0,1,0,,,,,0,0,0,0,,,,,2,0,2,0,1182.5683568000095,,,,,,,,,,,,,,0,active,,,,,,,,,,,,,,,,,1182.553749600018,1187.5523956000106,1187.5524085000216,1187.56844990002,1195.0686472000089,1195.0686472000089,1198.0687075000023,1198.0687075000023,1198.5187048000225,1198.5025662000116,3.66,4.39,366,438,7.5,1.2,0.75,pic-present,1,m,0.40961040000547655,None,,,,,sub-006,46.5,45.1,47.5,COM3,2024-01-25_12h30.50.920,2024_RDpaindiscrimination_maintask,2023.2.3,59.98213731616594,2024-01-25 12h31.16.601839 -0500,
1,0,1,0,,,,,0,0,0,0,,,,,3,0,3,0,1198.5187048000225,,,,,,,,,,,,,,1,inactive,,,,,,,,,,,,,,,,,1198.5041124999989,1203.5026648000057,1203.5026779000182,1203.51883310001,1211.0189876000222,1211.0189876000222,1214.0190825000172,1214.0190825000172,1214.4690854000219,1214.4529736000113,3.78,4.27,378,426,7.5,1.2,0.75,pic-present,1,m,0.31131949997507036,None,,,,,sub-006,46.5,45.1,47.5,COM3,2024-01-25_12h30.50.920,2024_RDpaindiscrimination_maintask,2023.2.3,59.98213731616594,2024-01-25 12h31.16.601839 -0500,
1,0,1,0,,,,,1,0,1,0,0,0,0,0,,,,,1215.8691010000184,,,,,,1214.4545606000174,1215.8533712000062,,,,,,,2,inactive,46.5,1230.8537027000275,1233.2569387000112,64.49999999999984,2.333,,,,1215.8539783000015,1220.8530659000098,1220.8530782000162,1220.869230900018,1230.936132200004,1230.853690900025,,,,,,,,,,,,,,,,,,,,,,,,,,,,,sub-006,46.5,45.1,47.5,COM3,2024-01-25_12h30.50.920,2024_RDpaindiscrimination_maintask,2023.2.3,59.98213731616594,2024-01-25 12h31.16.601839 -0500,
1,0,1,0,,,,,1,0,1,0,1,0,1,0,,,,,1233.2861799000239,,,,,,,,,,,,,,3,active,46.5,1248.2699145000079,1250.4391446000081,64.99999999999987,2.099,,,,1233.2585305000248,1238.269681900012,1238.26969310001,1238.2862977000186,,1248.2699021000008,,,,,,,,,,,,,,,,,,,,,,,,,,,,,sub-006,46.5,45.1,47.5,COM3,2024-01-25_12h30.50.920,2024_RDpaindiscrimination_maintask,2023.2.3,59.98213731616594,2024-01-25 12h31.16.601839 -0500,
1,0,1,0,,,,,1,0,1,0,,,,,0,0,0,0,1252.603289999999,,,,,,,,,,,,,,0,inactive,,,,,,,,,,,,,,,1250.4400824000186,1252.5878133000224,1252.588465400011,1257.587246400013,1257.5872587000194,1257.6033885000215,1265.0868854,1265.0868854,1268.086956700019,1268.086956700019,1268.5536145000078,1268.5374753000215,3.56,4.49,356,449,7.5,1.2,0.75,pic-absent,0,n,0.4312649000203237,None,,,,,sub-006,46.5,45.1,47.5,COM3,2024-01-25_12h30.50.920,2024_RDpaindiscrimination_maintask,2023.2.3,59.98213731616594,2024-01-25 12h31.16.601839 -0500,
1,0,1,0,,,,,1,0,1,0,,,,,1,0,1,0,1268.5536145000078,,,,,,,,,,,,,,1,active,,,,,,,,,,,,,,,,,1268.5391887000005,1273.5375883000088,1273.5376014000212,1273.5537517000048,1281.0539381000272,1281.0539381000272,1284.054009000014,1284.054009000014,1284.5039982000017,1284.487805700017,4.15,3.9,415,390,7.5,1.2,0.75,pic-absent,0,n,0.4085707000049297,None,,,,,sub-006,46.5,45.1,47.5,COM3,2024-01-25_12h30.50.920,2024_RDpaindiscrimination_maintask,2023.2.3,59.98213731616594,2024-01-25 12h31.16.601839 -0500,
1,0,1,0,,,,,1,0,1,0,,,,,2,0,2,0,1284.5039982000017,,,,,,,,,,,,,,2,inactive,,,,,,,,,,,,,,,,,1284.489368700015,1289.4882146000164,1289.488252500014,1289.5042445000145,1297.0042806000274,1297.0042806000274,1300.0043718000234,1300.0043718000234,1300.4543613000133,1300.4381312000041,3.33,4.72,333,472,7.5,1.2,0.75,pic-present,1,m,0.40618479999830015,None,,,,,sub-006,46.5,45.1,47.5,COM3,2024-01-25_12h30.50.920,2024_RDpaindiscrimination_maintask,2023.2.3,59.98213731616594,2024-01-25 12h31.16.601839 -0500,
1,0,1,0,,,,,1,0,1,0,,,,,3,0,3,0,1300.4543613000133,,,,,,,,,,,,,,3,inactive,,,,,,,,,,,,,,,,,1300.4398100000108,1305.438324800023,1305.4383375000034,1305.4545944000129,1312.9546344000264,1312.9546344000264,1315.9547331000213,1315.9547331000213,1316.4047267000133,1316.3885694000055,3.41,4.64,341,463,7.5,1.2,0.75,pic-absent,0,n,0.4954231000156142,None,,,,,sub-006,46.5,45.1,47.5,COM3,2024-01-25_12h30.50.920,2024_RDpaindiscrimination_maintask,2023.2.3,59.98213731616594,2024-01-25 12h31.16.601839 -0500,
1,0,1,0,,,,,2,0,2,0,0,0,0,0,,,,,1318.5047767000215,,,,,,1316.3901660000265,1318.4892143000034,,,,,,,0,active,46.5,1333.4893904000055,1335.3242522000219,47.49999999999997,1.765,,,,1318.4898434000206,1323.4887406000053,1323.4887534000154,1323.5048862000112,1333.571802999999,1333.489379000006,,,,,,,,,,,,,,,,,,,,,,,,,,,,,sub-006,46.5,45.1,47.5,COM3,2024-01-25_12h30.50.920,2024_RDpaindiscrimination_maintask,2023.2.3,59.98213731616594,2024-01-25 12h31.16.601839 -0500,
1,0,1,0,,,,,2,0,2,0,1,0,1,0,,,,,1335.3552245000028,,,,,,,,,,,,,,1,inactive,46.5,1350.3389254000213,1352.0239685999986,53.00000000000003,1.616,,,,1335.3258564000134,1340.3386746000033,1340.3386858000013,1340.3552757000143,,1350.338913500018,,,,,,,,,,,,,,,,,,,,,,,,,,,,,sub-006,46.5,45.1,47.5,COM3,2024-01-25_12h30.50.920,2024_RDpaindiscrimination_maintask,2023.2.3,59.98213731616594,2024-01-25 12h31.16.601839 -0500,
1,0,1,0,,,,,2,0,2,0,,,,,0,0,0,0,1353.5057092000206,,,,,,,,,,,,,,2,active,,,,,,,,,,,,,,,1352.0245461000013,1353.4902720000246,1353.491977400001,1358.4894954000192,1358.4895082000003,1358.5056888000108,1366.0058341000113,1366.0058341000113,1369.0059279999987,1369.0059279999987,1369.4559366000176,1369.4397580000223,4.22,3.83,422,383,7.5,1.2,0.75,pic-present,1,m,0.44030069999280386,None,,,,,sub-006,46.5,45.1,47.5,COM3,2024-01-25_12h30.50.920,2024_RDpaindiscrimination_maintask,2023.2.3,59.98213731616594,2024-01-25 12h31.16.601839 -0500,
1,0,1,0,,,,,2,0,2,0,,,,,1,0,1,0,1369.4559366000176,,,,,,,,,,,,,,3,active,,,,,,,,,,,,,,,,,1369.4414658000169,1374.4396834000072,1374.4396967000212,1374.4560493000026,1381.9562368000043,1381.9562368000043,1384.9562939000025,1384.9562939000025,1385.4063214000198,1385.3901847000234,3.68,4.37,368,437,7.5,1.2,0.75,pic-present,1,m,0.389739100006409,None,,,,,sub-006,46.5,45.1,47.5,COM3,2024-01-25_12h30.50.920,2024_RDpaindiscrimination_maintask,2023.2.3,59.98213731616594,2024-01-25 12h31.16.601839 -0500,
1,0,1,0,,,,,2,0,2,0,,,,,2,0,2,0,1385.4063214000198,,,,,,,,,,,,,,0,inactive,,,,,,,,,,,,,,,,,1385.391723000008,1390.3904569000006,1390.3904705000168,1390.4064141999988,1397.906574600027,1397.906574600027,1400.9066565000103,1400.9066565000103,1401.3566670000146,1401.3404846000194,3.56,4.49,356,449,7.5,1.2,0.75,pic-absent,0,n,0.4313137000135612,None,,,,,sub-006,46.5,45.1,47.5,COM3,2024-01-25_12h30.50.920,2024_RDpaindiscrimination_maintask,2023.2.3,59.98213731616594,2024-01-25 12h31.16.601839 -0500,
1,0,1,0,,,,,2,0,2,0,,,,,3,0,3,0,1401.3566670000146,,,,,,,,,,,,,,1,active,,,,,,,,,,,,,,,,,1401.3420629000175,1406.3406316000037,1406.34064520002,1406.3567856000154,1413.8569679000066,1413.8569679000066,1416.8570129,1416.8570129,1417.3070267000003,1417.2908451000112,3.28,4.77,328,476,7.5,1.2,0.75,pic-present,1,m,0.47313100000610575,None,,,,,sub-006,46.5,45.1,47.5,COM3,2024-01-25_12h30.50.920,2024_RDpaindiscrimination_maintask,2023.2.3,59.98213731616594,2024-01-25 12h31.16.601839 -0500,
1,0,1,0,,,,,3,0,3,0,0,0,0,0,,,,,1419.5404614,,,,,,1417.2924377000018,1419.52463,,,,,,,2,inactive,46.5,1434.5251000999997,1436.3111412000144,68.00000000000004,1.716,,,,1419.5252376999997,1424.5243309000216,1424.5243432999996,1424.5405458000023,1434.6074043000117,1434.5250882000255,,,,,,,,,,,,,,,,,,,,,,,,,,,,,sub-006,46.5,45.1,47.5,COM3,2024-01-25_12h30.50.920,2024_RDpaindiscrimination_maintask,2023.2.3,59.98213731616594,2024-01-25 12h31.16.601839 -0500,
1,0,1,0,,,,,3,0,3,0,1,0,1,0,,,,,1436.3409289000265,,,,,,,,,,,,,,3,active,46.5,1451.3245426000212,1453.777857500012,51.999999999999964,2.383,,,,1436.3127360000217,1441.3243092000193,1441.3243209000211,1441.340929900005,,1451.3245302000141,,,,,,,,,,,,,,,,,,,,,,,,,,,,,sub-006,46.5,45.1,47.5,COM3,2024-01-25_12h30.50.920,2024_RDpaindiscrimination_maintask,2023.2.3,59.98213731616594,2024-01-25 12h31.16.601839 -0500,
1,0,1,0,,,,,3,0,3,0,,,,,0,0,0,0,1455.9246204000083,,,,,,,,,,,,,,0,active,,,,,,,,,,,,,,,1453.7782271000033,1455.9097759000142,1455.9115718000103,1460.9085242,1460.9085370000103,1460.9247089000128,1468.4248640000005,1468.4248640000005,1471.4249315000197,1471.4249315000197,1471.8749562000157,1471.8587851000193,3.35,4.7,335,470,7.5,1.2,0.75,pic-absent,0,n,0.6128453999990597,None,,,,,sub-006,46.5,45.1,47.5,COM3,2024-01-25_12h30.50.920,2024_RDpaindiscrimination_maintask,2023.2.3,59.98213731616594,2024-01-25 12h31.16.601839 -0500,
1,0,1,0,,,,,3,0,3,0,,,,,1,0,1,0,1471.8749562000157,,,,,,,,,,,,,,1,inactive,,,,,,,,,,,,,,,,,1471.8605033000058,1476.8588803000166,1476.858893000026,1476.8750747000158,1484.3752258000022,1484.3752258000022,1487.375316300022,1487.375316300022,1487.825319800002,1487.8091358000238,3.85,4.2,385,420,7.5,1.2,0.75,pic-present,1,m,0.37495250001666136,None,,,,,sub-006,46.5,45.1,47.5,COM3,2024-01-25_12h30.50.920,2024_RDpaindiscrimination_maintask,2023.2.3,59.98213731616594,2024-01-25 12h31.16.601839 -0500,
1,0,1,0,,,,,3,0,3,0,,,,,2,0,2,0,1487.825319800002,,,,,,,,,,,,,,2,active,,,,,,,,,,,,,,,,,1487.8106848000025,1492.809411300026,1492.809424600011,1492.8254403000174,1500.32558840001,1500.32558840001,1503.3256769000145,1503.3256769000145,1503.7756824000098,1503.75951600002,3.36,4.69,336,469,7.5,1.2,0.75,pic-absent,0,n,0.6522471999924164,None,,,,,sub-006,46.5,45.1,47.5,COM3,2024-01-25_12h30.50.920,2024_RDpaindiscrimination_maintask,2023.2.3,59.98213731616594,2024-01-25 12h31.16.601839 -0500,
1,0,1,0,,,,,3,0,3,0,,,,,3,0,3,0,1503.7756824000098,,,,,,,,,,,,,,3,active,,,,,,,,,,,,,,,,,1503.7610646000248,1508.7596310000226,1508.7596442000067,1508.7758036000014,1516.2759547000169,1516.2759547000169,1519.2760178000026,1519.2760178000026,1519.7260528000188,1519.7098530000076,3.66,4.39,366,438,7.5,1.2,0.75,pic-absent,0,n,0.4621595999924466,None,,,,,sub-006,46.5,45.1,47.5,COM3,2024-01-25_12h30.50.920,2024_RDpaindiscrimination_maintask,2023.2.3,59.98213731616594,2024-01-25 12h31.16.601839 -0500,
,,,,,,,,,,,,,,,,,,,,,,,,,,,,,,,,,,,,,,,,,,,,,,,,,,,,,,,,,,,,,,,,,,,,,,,,,,1519.7112639000115,1522.827255000011,1522.8272896000126,1532.8268068000034,,,,,,,,,,,
