trials.thisRepN,trials.thisTrialN,trials.thisN,trials.thisIndex,loop_test.thisRepN,loop_test.thisTrialN,loop_test.thisN,loop_test.thisIndex,loop_eval_discri.thisRepN,loop_eval_discri.thisTrialN,loop_eval_discri.thisN,loop_eval_discri.thisIndex,loop_eval.thisRepN,loop_eval.thisTrialN,loop_eval.thisN,loop_eval.thisIndex,loop_discri.thisRepN,loop_discri.thisTrialN,loop_discri.thisN,loop_discri.thisIndex,thisRow.t,notes,Set_up.started,Set_up.stopped,electrode_check.started,electrode_check.stopped,instructions_eval.started,instructions_eval.stopped,pause_5_test.started,pause_5_test.stopped,Phase_Test.started,thermode_locali.started,Phase_Test.stopped,loca_thermode,condition,temp_trial_sent,eval_douleur.started,eval_douleur.stopped,ratingScale.response,ratingScale.rt,thermode_locali.stopped,Fin_test.started,text.started,Fin_test.stopped,pause_5_EVA.started,pause_5_EVA.stopped,tâche_EVA.started,thermode_locali_EVA.started,thermode_locali_EVA.stopped,tâche_EVA.stopped,instructions_discrim.started,instructions_discrim.stopped,pause_5_pic.started,pause_5_pic.stopped,tâche_PIC.started,thermode_locali_pic.started,percu_or.started,responser.started,thermode_locali_pic.stopped,percu_or.stopped,responser.stopped,tâche_PIC.stopped,dur_plateau1,dur_plateau2,dur_plateau1_sent,dur_plateau2_sent,start_plateau_2_resp,dur_pic,dur_rise,pic_presence,pic_response,discrimin_resp.keys,discrimin_resp.rt,discrimin_resp.duration,break_entre_bloc.started,break_entre_bloc.stopped,merci.started,merci.stopped,participant,temp_flat,temp_active,temp_pic_set,com_thermode,date,expName,psychopyVersion,frameRate,expStart,
0,0,0,0,0,0,0,0,,,,,,,,,,,,,136.3146200000774,,0.013236400089226663,132.01491670007817,132.0152556000976,134.21487260004506,134.21488169999793,136.28154039999936,136.28182270005345,141.29801200004295,141.2980219000019,141.3146565000061,153.2981306000147,0,inactive,42.8,153.29837860004045,156.4171168000903,45.00000000000013,3.096,,,,,,,,,,,,,,,,,,,,,,,,,,,,,,,,,,,,,,,sub-024,42.8,41,43.7,COM3,2024-02-19_09h41.26.043,2024_RDpaindiscrimination_maintask,2023.2.3,59.98062626381416,2024-02-19 09h41.53.707142 -0500,
0,0,0,0,1,0,1,0,,,,,,,,,,,,,156.43148910009768,,,,,,,,156.4176309000468,161.41511820000596,161.4151246000547,161.431510000024,173.41539000009652,1,inactive,42.8,173.41553850006312,175.7497123000212,60.000000000000036,2.315,173.44822590006515,,,,,,,,,,,,,,,,,,,,,,,,,,,,,,,,,,,,,,sub-024,42.8,41,43.7,COM3,2024-02-19_09h41.26.043,2024_RDpaindiscrimination_maintask,2023.2.3,59.98062626381416,2024-02-19 09h41.53.707142 -0500,
0,0,0,0,2,0,2,0,,,,,,,,,,,,,175.76498370000627,,,,,,,,175.75056519999634,180.7485843000468,180.74859030009247,180.76504120009486,192.748925800086,2,active,41.0,192.74908109998796,195.78459699999075,25.00000000000016,3.016,192.78181930002756,,,,,,,,,,,,,,,,,,,,,,,,,,,,,,,,,,,,,,sub-024,42.8,41,43.7,COM3,2024-02-19_09h41.26.043,2024_RDpaindiscrimination_maintask,2023.2.3,59.98062626381416,2024-02-19 09h41.53.707142 -0500,
0,0,0,0,3,0,3,0,,,,,,,,,,,,,195.79854290001094,,,,,,,,195.7854147000471,200.7820676000556,200.7820742999902,200.798566600075,212.78245679999236,3,inactive,42.8,212.78260770009365,214.76701200008392,54.49999999999995,1.966,212.81536300003063,,,,,,,,,,,,,,,,,,,,,,,,,,,,,,,,,,,,,,sub-024,42.8,41,43.7,COM3,2024-02-19_09h41.26.043,2024_RDpaindiscrimination_maintask,2023.2.3,59.98062626381416,2024-02-19 09h41.53.707142 -0500,
0,0,0,0,4,0,4,0,,,,,,,,,,,,,214.7820029000286,,,,,,,,214.7677551000379,219.76555420004297,219.7655611000955,219.7821144000627,231.76600400009193,0,active,41.0,231.7661528000608,234.1351944000926,40.49999999999993,2.35,231.79886920005083,,,,,,,,,,,,,,,,,,,,,,,,,,,,,,,,,,,,,,sub-024,42.8,41,43.7,COM3,2024-02-19_09h41.26.043,2024_RDpaindiscrimination_maintask,2023.2.3,59.98062626381416,2024-02-19 09h41.53.707142 -0500,
0,0,0,0,5,0,5,0,,,,,,,,,,,,,234.14880379999522,,,,,,,,234.13593109999783,239.13240510004107,239.1324115000898,239.14891059999354,251.13282769999932,1,active,41.0,251.13298310001846,253.45098980003968,22.000000000000064,2.299,251.16569729999173,,,,,,,,,,,,,,,,,,,,,,,,,,,,,,,,,,,,,,sub-024,42.8,41,43.7,COM3,2024-02-19_09h41.26.043,2024_RDpaindiscrimination_maintask,2023.2.3,59.98062626381416,2024-02-19 09h41.53.707142 -0500,
0,0,0,0,6,0,6,0,,,,,,,,,,,,,253.46570910001174,,,,,,,,253.45179840002675,258.44931739999447,258.4493238000432,258.4658489000285,270.4497046000324,2,inactive,42.8,270.4498539000051,273.85192310006823,58.99999999999987,3.382,270.48255499999505,,,,,,,,,,,,,,,,,,,,,,,,,,,,,,,,,,,,,,sub-024,42.8,41,43.7,COM3,2024-02-19_09h41.26.043,2024_RDpaindiscrimination_maintask,2023.2.3,59.98062626381416,2024-02-19 09h41.53.707142 -0500,
0,0,0,0,7,0,7,0,,,,,,,,,,,,,273.8659205000149,,,,,,,,273.8527376999846,278.84947600006126,278.8494822999928,278.8660084999865,290.849878200097,3,active,41.0,290.8500192000065,294.28458540001884,23.000000000000203,3.416,290.8827515000012,,,,,,,,,,,,,,,,,,,,,,,,,,,,,,,,,,,,,,sub-024,42.8,41,43.7,COM3,2024-02-19_09h41.26.043,2024_RDpaindiscrimination_maintask,2023.2.3,59.98062626381416,2024-02-19 09h41.53.707142 -0500,
0,0,0,0,8,0,8,0,,,,,,,,,,,,,294.29948899999727,,,,,,,,294.2854665000923,299.2830150000518,299.28302159998566,299.2995125000598,311.2833705000812,0,inactive,42.8,311.2835222000722,314.4174668000778,62.99999999999986,3.115,311.31616909999866,,,,,,,,,,,,,,,,,,,,,,,,,,,,,,,,,,,,,,sub-024,42.8,41,43.7,COM3,2024-02-19_09h41.26.043,2024_RDpaindiscrimination_maintask,2023.2.3,59.98062626381416,2024-02-19 09h41.53.707142 -0500,
0,0,0,0,9,0,9,0,,,,,,,,,,,,,314.43302880006377,,,,,,,,314.4176878000144,319.41655010008253,319.416557700024,319.43305049999617,331.4169737000484,1,inactive,42.8,331.4171326000942,333.45261979999486,51.00000000000007,2.016,331.449828300043,,,,,,,,,,,,,,,,,,,,,,,,,,,,,,,,,,,,,,sub-024,42.8,41,43.7,COM3,2024-02-19_09h41.26.043,2024_RDpaindiscrimination_maintask,2023.2.3,59.98062626381416,2024-02-19 09h41.53.707142 -0500,
0,0,0,0,10,0,10,0,,,,,,,,,,,,,333.46656490000896,,,,,,,,333.4533610000508,338.45011620002333,338.45012240007054,338.46657659998164,350.450536700082,2,active,41.0,350.4506787999999,353.6364137000637,16.50000000000021,3.167,350.483448300045,,,,,,,,,,,,,,,,,,,,,,,,,,,,,,,,,,,,,,sub-024,42.8,41,43.7,COM3,2024-02-19_09h41.26.043,2024_RDpaindiscrimination_maintask,2023.2.3,59.98062626381416,2024-02-19 09h41.53.707142 -0500,
0,0,0,0,11,0,11,0,,,,,,,,,,,,,353.6500981000718,,,,,,,,353.6371558000101,358.6336583000375,358.6336650000885,358.6501374000218,370.6340691000223,3,inactive,42.8,370.6342188999988,374.0529399000807,87.99999999999983,3.4,370.6668053000467,,,,,,,,,,,,,,,,,,,,,,,,,,,,,,,,,,,,,,sub-024,42.8,41,43.7,COM3,2024-02-19_09h41.26.043,2024_RDpaindiscrimination_maintask,2023.2.3,59.98062626381416,2024-02-19 09h41.53.707142 -0500,
0,0,0,0,12,0,12,0,,,,,,,,,,,,,374.06695460004266,,,,,,,,374.053696100018,379.05042430001777,379.0504307000665,379.06695850007236,391.05100129998755,0,active,41.0,391.0511473000515,392.6869763000868,34.50000000000002,1.616,391.08375660004094,,,,,,,,,,,,,,,,,,,,,,,,,,,,,,,,,,,,,,sub-024,42.8,41,43.7,COM3,2024-02-19_09h41.26.043,2024_RDpaindiscrimination_maintask,2023.2.3,59.98062626381416,2024-02-19 09h41.53.707142 -0500,
0,0,0,0,13,0,13,0,,,,,,,,,,,,,392.7004138000775,,,,,,,,392.6877668000525,397.68395139998756,397.6839578000363,397.70045790006407,409.684519500006,1,active,41.0,409.68466430006083,412.4363008000655,21.000000000000174,2.732,409.71732020005584,,,,,,,,,,,,,,,,,,,,,,,,,,,,,,,,,,,,,,sub-024,42.8,41,43.7,COM3,2024-02-19_09h41.26.043,2024_RDpaindiscrimination_maintask,2023.2.3,59.98062626381416,2024-02-19 09h41.53.707142 -0500,
0,0,0,0,14,0,14,0,,,,,,,,,,,,,412.4506710000569,,,,,,,,412.4368281000061,417.43437939998694,417.43438560003415,417.4507140000351,429.43465370009653,2,inactive,42.8,429.43480829999316,432.353758100071,59.999999999999936,2.899,429.4674574000528,,,,,,,,,,,,,,,,,,,,,,,,,,,,,,,,,,,,,,sub-024,42.8,41,43.7,COM3,2024-02-19_09h41.26.043,2024_RDpaindiscrimination_maintask,2023.2.3,59.98062626381416,2024-02-19 09h41.53.707142 -0500,
0,0,0,0,15,0,15,0,,,,,,,,,,,,,432.3676418000832,,,,,,,,432.3545353000518,437.35106060002,437.35106690006796,437.3675230999943,449.35150490002707,3,active,41.0,449.3516482000705,451.553428000072,13.000000000000004,2.183,449.38434870005585,,,,,,,,,,,,,,,,,,,,,,,,,,,,,,,,,,,,,,sub-024,42.8,41,43.7,COM3,2024-02-19_09h41.26.043,2024_RDpaindiscrimination_maintask,2023.2.3,59.98062626381416,2024-02-19 09h41.53.707142 -0500,
0,0,0,0,,,,,0,0,0,0,0,0,0,0,,,,,474.5012636000756,,,,,,472.51852520008106,474.4849134000251,,,,,,0,inactive,42.8,491.48510859999806,493.7530036000535,55.99999999999987,2.249,,451.553970900015,451.56774399999995,472.5182050000876,474.4852216000436,479.4847598000197,479.4847715999931,479.50127280002926,491.518024399993,491.4851003000513,,,,,,,,,,,,,,,,,,,,,,,,,,,,,sub-024,42.8,41,43.7,COM3,2024-02-19_09h41.26.043,2024_RDpaindiscrimination_maintask,2023.2.3,59.98062626381416,2024-02-19 09h41.53.707142 -0500,
0,0,0,0,,,,,0,0,0,0,1,0,1,0,,,,,493.76820689998567,,,,,,,,,,,,,1,active,42.8,510.7521190000698,513.7037220000057,49.00000000000007,2.932,,,,,493.7537505000364,498.75167830009013,498.751685300027,498.76815760007594,510.7849826000165,510.7521105000051,,,,,,,,,,,,,,,,,,,,,,,,,,,,,sub-024,42.8,41,43.7,COM3,2024-02-19_09h41.26.043,2024_RDpaindiscrimination_maintask,2023.2.3,59.98062626381416,2024-02-19 09h41.53.707142 -0500,
0,0,0,0,,,,,0,0,0,0,,,,,0,0,0,0,516.8517162000062,,,,,,,,,,,,,2,inactive,,,,,,,,,,,,,,,,513.704264500062,516.8353235999821,516.8356495000189,521.8352712000487,521.8352786999894,521.8517705000704,529.8352055000141,529.8352055000141,532.8018913000124,532.8352140000788,532.8352140000788,532.8186688000569,3.83,4.97,383,497,8,1.2,0.75,pic-present,1,m,0.6440967000089586,None,,,,,sub-024,42.8,41,43.7,COM3,2024-02-19_09h41.26.043,2024_RDpaindiscrimination_maintask,2023.2.3,59.98062626381416,2024-02-19 09h41.53.707142 -0500,
0,0,0,0,,,,,0,0,0,0,,,,,1,0,1,0,532.8352140000788,,,,,,,,,,,,,3,active,,,,,,,,,,,,,,,,,,532.8192929000361,537.8187586000422,537.8187661999837,537.8353355000727,545.818650500034,545.818650500034,548.785384900053,548.8186697000638,548.8186697000638,548.8022375000874,3.49,5.31,349,531,8,1.2,0.75,pic-absent,0,n,0.41198979993350804,None,,,,,sub-024,42.8,41,43.7,COM3,2024-02-19_09h41.26.043,2024_RDpaindiscrimination_maintask,2023.2.3,59.98062626381416,2024-02-19 09h41.53.707142 -0500,
0,0,0,0,,,,,0,0,0,0,,,,,2,0,2,0,548.8186697000638,,,,,,,,,,,,,0,active,,,,,,,,,,,,,,,,,,548.8027042000322,553.8022674000822,553.8022745000198,553.8188082000706,561.8022033000598,561.8022033000598,564.7688114000484,564.8021994000301,564.8021994000301,564.7857190000359,3.45,5.35,345,535,8,1.2,0.75,pic-absent,0,n,0.6969118000706658,None,,,,,sub-024,42.8,41,43.7,COM3,2024-02-19_09h41.26.043,2024_RDpaindiscrimination_maintask,2023.2.3,59.98062626381416,2024-02-19 09h41.53.707142 -0500,
0,0,0,0,,,,,0,0,0,0,,,,,3,0,3,0,564.8021994000301,,,,,,,,,,,,,1,inactive,,,,,,,,,,,,,,,,,,564.7862006000942,569.785755100078,569.7857624000171,569.8022954000626,577.7856284000445,577.7856284000445,580.7523126000306,580.7857288999949,580.7857288999949,580.7692258000607,4.07,4.73,407,473,8,1.2,0.75,pic-present,1,m,0.46966959990095347,None,,,,,sub-024,42.8,41,43.7,COM3,2024-02-19_09h41.26.043,2024_RDpaindiscrimination_maintask,2023.2.3,59.98062626381416,2024-02-19 09h41.53.707142 -0500,
0,0,0,0,,,,,1,0,1,0,0,0,0,0,,,,,583.0857523999875,,,,,,580.7697303000605,583.0693771000952,,,,,,2,active,42.8,600.0697146999883,601.7217677000444,43.50000000000006,1.633,,,,,583.069692100049,588.0693284000736,588.0693352000089,588.0857183000771,600.1025641000597,600.0697057000361,,,,,,,,,,,,,,,,,,,,,,,,,,,,,sub-024,42.8,41,43.7,COM3,2024-02-19_09h41.26.043,2024_RDpaindiscrimination_maintask,2023.2.3,59.98062626381416,2024-02-19 09h41.53.707142 -0500,
0,0,0,0,,,,,1,0,1,0,1,0,1,0,,,,,601.7358576999977,,,,,,,,,,,,,3,inactive,42.8,618.7198614000808,621.1706323000835,71.50000000000003,2.375,,,,,601.7225544999819,606.719398300047,606.7194050999824,606.7359560000477,618.802744399989,618.7198534000199,,,,,,,,,,,,,,,,,,,,,,,,,,,,,sub-024,42.8,41,43.7,COM3,2024-02-19_09h41.26.043,2024_RDpaindiscrimination_maintask,2023.2.3,59.98062626381416,2024-02-19 09h41.53.707142 -0500,
0,0,0,0,,,,,1,0,1,0,,,,,0,0,0,0,623.1527973000193,,,,,,,,,,,,,0,active,,,,,,,,,,,,,,,,621.1711534000933,623.1363577999873,623.1366896000691,628.1363534000702,628.1363600000041,628.1528887000168,636.1362776000751,636.1362776000751,639.1029011000646,639.1362828999991,639.1362828999991,639.1197730000131,3.86,4.94,386,494,8,1.2,0.75,pic-absent,0,n,0.5902486999984831,None,,,,,sub-024,42.8,41,43.7,COM3,2024-02-19_09h41.26.043,2024_RDpaindiscrimination_maintask,2023.2.3,59.98062626381416,2024-02-19 09h41.53.707142 -0500,
0,0,0,0,,,,,1,0,1,0,,,,,1,0,1,0,639.1362828999991,,,,,,,,,,,,,1,inactive,,,,,,,,,,,,,,,,,,639.1203176000854,644.1197813000763,644.1197890000185,644.136319900048,652.1197651000693,652.1197651000693,655.0864466000348,655.1197433000198,655.1197433000198,655.1032428999897,4.57,4.23,457,423,8,1.2,0.75,pic-present,0,n,0.9265489000827074,None,,,,,sub-024,42.8,41,43.7,COM3,2024-02-19_09h41.26.043,2024_RDpaindiscrimination_maintask,2023.2.3,59.98062626381416,2024-02-19 09h41.53.707142 -0500,
0,0,0,0,,,,,1,0,1,0,,,,,2,0,2,0,655.1197433000198,,,,,,,,,,,,,2,active,,,,,,,,,,,,,,,,,,655.10372870008,660.1033318000846,660.1033396000275,660.1197576000122,668.1032670000568,668.1032670000568,671.069896500092,671.1032311000163,671.1032311000163,671.0867476999993,3.66,5.14,366,514,8,1.2,0.75,pic-present,1,m,0.41946730006020516,None,,,,,sub-024,42.8,41,43.7,COM3,2024-02-19_09h41.26.043,2024_RDpaindiscrimination_maintask,2023.2.3,59.98062626381416,2024-02-19 09h41.53.707142 -0500,
0,0,0,0,,,,,1,0,1,0,,,,,3,0,3,0,671.1032311000163,,,,,,,,,,,,,3,active,,,,,,,,,,,,,,,,,,671.0872046999866,676.0868530999869,676.0868609000463,676.1032795000356,684.0866954000667,684.0866954000667,687.0533918000292,687.0867799000116,687.0867799000116,687.0702597000636,4.6,4.2,459,420,8,1.2,0.75,pic-absent,0,n,0.4276363999815658,None,,,,,sub-024,42.8,41,43.7,COM3,2024-02-19_09h41.26.043,2024_RDpaindiscrimination_maintask,2023.2.3,59.98062626381416,2024-02-19 09h41.53.707142 -0500,
0,0,0,0,,,,,2,0,2,0,0,0,0,0,,,,,688.7368498999858,,,,,,687.0707860999973,688.7203782000579,,,,,,0,inactive,42.8,705.7207252000226,707.888323900057,59.50000000000007,2.148,,,,,688.720666200039,693.7202960000141,693.7203030000674,693.7367950000335,705.7535976000363,705.7207167000743,,,,,,,,,,,,,,,,,,,,,,,,,,,,,sub-024,42.8,41,43.7,COM3,2024-02-19_09h41.26.043,2024_RDpaindiscrimination_maintask,2023.2.3,59.98062626381416,2024-02-19 09h41.53.707142 -0500,
0,0,0,0,,,,,2,0,2,0,1,0,1,0,,,,,707.9036511000013,,,,,,,,,,,,,1,active,42.8,724.8875200999901,727.4215120000299,40.999999999999936,2.515,,,,,707.8890944999876,712.887296800036,712.8873038000893,712.9036402000347,724.9205182000296,724.8875120000448,,,,,,,,,,,,,,,,,,,,,,,,,,,,,sub-024,42.8,41,43.7,COM3,2024-02-19_09h41.26.043,2024_RDpaindiscrimination_maintask,2023.2.3,59.98062626381416,2024-02-19 09h41.53.707142 -0500,
0,0,0,0,,,,,2,0,2,0,,,,,0,0,0,0,729.4038747000741,,,,,,,,,,,,,2,inactive,,,,,,,,,,,,,,,,727.4216822000453,729.3875478000846,729.387867600075,734.3874505000422,734.3874576000962,734.4039397999877,742.3873419000302,742.3873419000302,745.354047400062,745.3873736000387,745.3873736000387,745.3709032000042,4.25,4.55,425,455,8,1.2,0.75,pic-absent,0,n,0.4483774999389425,None,,,,,sub-024,42.8,41,43.7,COM3,2024-02-19_09h41.26.043,2024_RDpaindiscrimination_maintask,2023.2.3,59.98062626381416,2024-02-19 09h41.53.707142 -0500,
0,0,0,0,,,,,2,0,2,0,,,,,1,0,1,0,745.3873736000387,,,,,,,,,,,,,3,active,,,,,,,,,,,,,,,,,,745.3714421000332,750.3709175999975,750.3709253000561,750.3873467000667,758.3708363000769,758.3708363000769,761.3375385000836,761.3708733000094,761.3708733000094,761.3543825000525,4.57,4.23,457,423,8,1.2,0.75,pic-present,1,m,0.5514127999776974,None,,,,,sub-024,42.8,41,43.7,COM3,2024-02-19_09h41.26.043,2024_RDpaindiscrimination_maintask,2023.2.3,59.98062626381416,2024-02-19 09h41.53.707142 -0500,
0,0,0,0,,,,,2,0,2,0,,,,,2,0,2,0,761.3708733000094,,,,,,,,,,,,,0,inactive,,,,,,,,,,,,,,,,,,761.3548412000528,766.3544177000877,766.3544255000306,766.3709310999839,774.3543351000408,774.3543351000408,777.3210392000619,777.3543676000554,777.3543676000554,777.3378857000498,3.58,5.22,358,522,8,1.2,0.75,pic-absent,0,n,0.41307469992898405,None,,,,,sub-024,42.8,41,43.7,COM3,2024-02-19_09h41.26.043,2024_RDpaindiscrimination_maintask,2023.2.3,59.98062626381416,2024-02-19 09h41.53.707142 -0500,
0,0,0,0,,,,,2,0,2,0,,,,,3,0,3,0,777.3543676000554,,,,,,,,,,,,,1,inactive,,,,,,,,,,,,,,,,,,777.3383595000487,782.3379572000122,782.3379654000746,782.3543960000388,790.3379268000135,790.3379268000135,793.304569400032,793.337924899999,793.337924899999,793.3214162000222,4.16,4.64,416,463,8,1.2,0.75,pic-absent,0,n,0.42081199993845075,None,,,,,sub-024,42.8,41,43.7,COM3,2024-02-19_09h41.26.043,2024_RDpaindiscrimination_maintask,2023.2.3,59.98062626381416,2024-02-19 09h41.53.707142 -0500,
0,0,0,0,,,,,3,0,3,0,0,0,0,0,,,,,795.0712640000274,,,,,,793.321964200004,795.0548616000451,,,,,,2,active,42.8,812.0552228000015,814.9071005000733,46.499999999999986,2.833,,,,,795.0551471000072,800.0548033000669,800.054810200003,800.0713066000026,812.0880915999878,812.0552141000517,,,,,,,,,,,,,,,,,,,,,,,,,,,,,sub-024,42.8,41,43.7,COM3,2024-02-19_09h41.26.043,2024_RDpaindiscrimination_maintask,2023.2.3,59.98062626381416,2024-02-19 09h41.53.707142 -0500,
0,0,0,0,,,,,3,0,3,0,1,0,1,0,,,,,814.9213631000603,,,,,,,,,,,,,3,inactive,42.8,831.9054710000055,833.339838200016,41.50000000000003,1.415,,,,,814.9078141000355,819.9049576000543,819.9049648999935,819.9214288000949,831.9383001000388,831.9054629000602,,,,,,,,,,,,,,,,,,,,,,,,,,,,,sub-024,42.8,41,43.7,COM3,2024-02-19_09h41.26.043,2024_RDpaindiscrimination_maintask,2023.2.3,59.98062626381416,2024-02-19 09h41.53.707142 -0500,
0,0,0,0,,,,,3,0,3,0,,,,,0,0,0,0,835.1883258000016,,,,,,,,,,,,,0,active,,,,,,,,,,,,,,,,833.3406040000264,835.1720655000536,835.172369100037,840.1718794000335,840.1718866000883,840.1883369000861,848.1718107000925,848.1718107000925,851.1385079000611,851.1718317000195,851.1718317000195,851.1553730000742,3.62,5.18,362,518,8,1.2,0.75,pic-present,1,m,0.5792784000514075,None,,,,,sub-024,42.8,41,43.7,COM3,2024-02-19_09h41.26.043,2024_RDpaindiscrimination_maintask,2023.2.3,59.98062626381416,2024-02-19 09h41.53.707142 -0500,
0,0,0,0,,,,,3,0,3,0,,,,,1,0,1,0,851.1718317000195,,,,,,,,,,,,,1,inactive,,,,,,,,,,,,,,,,,,851.155923900078,856.1553415000672,856.1553491000086,856.1718585999915,864.1551445000805,864.1551445000805,867.1218422000529,867.1551952000009,867.1551952000009,867.1386876000324,4.27,4.53,426,453,8,1.2,0.75,pic-absent,0,n,0.6753879999741912,None,,,,,sub-024,42.8,41,43.7,COM3,2024-02-19_09h41.26.043,2024_RDpaindiscrimination_maintask,2023.2.3,59.98062626381416,2024-02-19 09h41.53.707142 -0500,
0,0,0,0,,,,,3,0,3,0,,,,,2,0,2,0,867.1551952000009,,,,,,,,,,,,,2,inactive,,,,,,,,,,,,,,,,,,867.1391433000099,872.1387153000105,872.138727499987,872.1552341000643,880.1386429000413,880.1386429000413,883.1053742000367,883.1387124999892,883.1387124999892,883.1221849999856,3.91,4.89,391,488,8,1.2,0.75,pic-present,1,m,0.35565519996453077,None,,,,,sub-024,42.8,41,43.7,COM3,2024-02-19_09h41.26.043,2024_RDpaindiscrimination_maintask,2023.2.3,59.98062626381416,2024-02-19 09h41.53.707142 -0500,
0,0,0,0,,,,,3,0,3,0,,,,,3,0,3,0,883.1387124999892,,,,,,,,,,,,,3,active,,,,,,,,,,,,,,,,,,883.1226647000294,888.1222710000584,888.1222778999945,888.138767400058,896.122130600037,896.122130600037,899.0888930000365,899.1222659000196,899.1222659000196,899.1056845000712,4.52,4.28,451,428,8,1.2,0.75,pic-present,1,m,0.5483986999606714,None,,,,,sub-024,42.8,41,43.7,COM3,2024-02-19_09h41.26.043,2024_RDpaindiscrimination_maintask,2023.2.3,59.98062626381416,2024-02-19 09h41.53.707142 -0500,
1,0,1,0,0,0,0,0,,,,,,,,,,,,,972.7730373000959,,,,967.2900658000726,970.756550500053,970.756559100002,972.7566229000222,972.7569333000574,977.7565971000586,977.7566035999916,977.7730948000681,989.7570335000055,0,active,41.0,989.7572478000075,993.0745240000542,16.50000000000021,3.295,989.7898566999938,,,,,,,,,,,,,,,,,,,,,,,,,,,,,,,,,,899.1061206000159,967.2899133000756,,,sub-024,42.8,41,43.7,COM3,2024-02-19_09h41.26.043,2024_RDpaindiscrimination_maintask,2023.2.3,59.98062626381416,2024-02-19 09h41.53.707142 -0500,
1,0,1,0,1,0,1,0,,,,,,,,,,,,,993.0899056000635,,,,,,,,993.0753639000468,998.0734678000445,998.0734741000924,998.089961700025,1010.0738685000688,1,inactive,42.8,1010.0740157000255,1012.158867900027,54.50000000000006,2.066,1010.1067541000666,,,,,,,,,,,,,,,,,,,,,,,,,,,,,,,,,,,,,,sub-024,42.8,41,43.7,COM3,2024-02-19_09h41.26.043,2024_RDpaindiscrimination_maintask,2023.2.3,59.98062626381416,2024-02-19 09h41.53.707142 -0500,
1,0,1,0,2,0,2,0,,,,,,,,,,,,,1012.1733713999856,,,,,,,,1012.1595057999948,1017.1569877000293,1017.1569947000826,1017.1734256000491,1029.1573885000544,2,inactive,42.8,1029.1575315000955,1032.0090983000118,54.499999999999886,2.832,1029.1902732000453,,,,,,,,,,,,,,,,,,,,,,,,,,,,,,,,,,,,,,sub-024,42.8,41,43.7,COM3,2024-02-19_09h41.26.043,2024_RDpaindiscrimination_maintask,2023.2.3,59.98062626381416,2024-02-19 09h41.53.707142 -0500,
1,0,1,0,3,0,3,0,,,,,,,,,,,,,1032.023685400025,,,,,,,,1032.0099110000301,1037.0070842000423,1037.0070949000074,1037.0236155000748,1049.0076756000053,3,active,41.0,1049.0078219000716,1051.5096816000296,9.500000000000133,2.483,1049.040541500086,,,,,,,,,,,,,,,,,,,,,,,,,,,,,,,,,,,,,,sub-024,42.8,41,43.7,COM3,2024-02-19_09h41.26.043,2024_RDpaindiscrimination_maintask,2023.2.3,59.98062626381416,2024-02-19 09h41.53.707142 -0500,
1,0,1,0,4,0,4,0,,,,,,,,,,,,,1051.5238918000832,,,,,,,,1051.5104680000804,1056.5074844000628,1056.507490399992,1056.5239697000943,1068.5077733000508,0,inactive,42.8,1068.5079171999823,1071.6105556000257,55.99999999999991,3.084,1068.540722200065,,,,,,,,,,,,,,,,,,,,,,,,,,,,,,,,,,,,,,sub-024,42.8,41,43.7,COM3,2024-02-19_09h41.26.043,2024_RDpaindiscrimination_maintask,2023.2.3,59.98062626381416,2024-02-19 09h41.53.707142 -0500,
1,0,1,0,5,0,5,0,,,,,,,,,,,,,1071.6240347999847,,,,,,,,1071.6114082999993,1076.607566800085,1076.6075735000195,1076.6241144000087,1088.6080416000914,1,active,41.0,1088.6081858000252,1090.4091310000513,19.50000000000007,1.782,1088.6409343000269,,,,,,,,,,,,,,,,,,,,,,,,,,,,,,,,,,,,,,sub-024,42.8,41,43.7,COM3,2024-02-19_09h41.26.043,2024_RDpaindiscrimination_maintask,2023.2.3,59.98062626381416,2024-02-19 09h41.53.707142 -0500,
1,0,1,0,6,0,6,0,,,,,,,,,,,,,1090.424254600075,,,,,,,,1090.4094683000585,1095.4077602000907,1095.407767000026,1095.4244082000805,1107.4085750000086,2,inactive,42.8,1107.4087383000879,1110.5940209000837,19.500000000000078,3.166,1107.4410912999883,,,,,,,,,,,,,,,,,,,,,,,,,,,,,,,,,,,,,,sub-024,42.8,41,43.7,COM3,2024-02-19_09h41.26.043,2024_RDpaindiscrimination_maintask,2023.2.3,59.98062626381416,2024-02-19 09h41.53.707142 -0500,
1,0,1,0,7,0,7,0,,,,,,,,,,,,,1110.6078198000323,,,,,,,,1110.5947872999823,1115.5913837000262,1115.591390500078,1115.607871800079,1127.5917899000924,3,active,41.0,1127.59193460003,1128.9781206999905,10.0,1.368,1127.6246102000587,,,,,,,,,,,,,,,,,,,,,,,,,,,,,,,,,,,,,,sub-024,42.8,41,43.7,COM3,2024-02-19_09h41.26.043,2024_RDpaindiscrimination_maintask,2023.2.3,59.98062626381416,2024-02-19 09h41.53.707142 -0500,
1,0,1,0,8,0,8,0,,,,,,,,,,,,,1128.9913312999997,,,,,,,,1128.978929700097,1133.9749322000425,1133.974939100095,1133.9914040000876,1145.9752948000096,0,active,41.0,1145.9754371000454,1149.1269083000952,14.000000000000208,3.133,1146.0081897000782,,,,,,,,,,,,,,,,,,,,,,,,,,,,,,,,,,,,,,sub-024,42.8,41,43.7,COM3,2024-02-19_09h41.26.043,2024_RDpaindiscrimination_maintask,2023.2.3,59.98062626381416,2024-02-19 09h41.53.707142 -0500,
1,0,1,0,9,0,9,0,,,,,,,,,,,,,1149.1415878999978,,,,,,,,1149.1277380000101,1154.1251089000143,1154.125115700066,1154.1415995000862,1166.1255178999854,1,inactive,42.8,1166.1256661000662,1168.294759200071,59.49999999999989,2.15,1166.158394600032,,,,,,,,,,,,,,,,,,,,,,,,,,,,,,,,,,,,,,sub-024,42.8,41,43.7,COM3,2024-02-19_09h41.26.043,2024_RDpaindiscrimination_maintask,2023.2.3,59.98062626381416,2024-02-19 09h41.53.707142 -0500,
1,0,1,0,10,0,10,0,,,,,,,,,,,,,1168.3083869999973,,,,,,,,1168.2955713000847,1173.2918795000296,1173.2918861000799,1173.30839130003,1185.2923847000347,2,active,41.0,1185.2925301000942,1186.294262600015,10.0,0.983,1185.3251475000288,,,,,,,,,,,,,,,,,,,,,,,,,,,,,,,,,,,,,,sub-024,42.8,41,43.7,COM3,2024-02-19_09h41.26.043,2024_RDpaindiscrimination_maintask,2023.2.3,59.98062626381416,2024-02-19 09h41.53.707142 -0500,
1,0,1,0,11,0,11,0,,,,,,,,,,,,,1186.3085735000204,,,,,,,,1186.295128900092,1191.2920506000519,1191.2920571999857,1191.3085594000295,1203.2924835000886,3,inactive,42.8,1203.292647800059,1204.6610628000926,42.999999999999986,1.349,1203.3253889000043,,,,,,,,,,,,,,,,,,,,,,,,,,,,,,,,,,,,,,sub-024,42.8,41,43.7,COM3,2024-02-19_09h41.26.043,2024_RDpaindiscrimination_maintask,2023.2.3,59.98062626381416,2024-02-19 09h41.53.707142 -0500,
1,0,1,0,12,0,12,0,,,,,,,,,,,,,1204.6754538000096,,,,,,,,1204.6617940000724,1209.6589003000408,1209.6589071000926,1209.6753884000937,1221.6594219000544,0,inactive,42.8,1221.6595707000233,1223.427602400072,61.50000000000003,1.749,1221.6923343000235,,,,,,,,,,,,,,,,,,,,,,,,,,,,,,,,,,,,,,sub-024,42.8,41,43.7,COM3,2024-02-19_09h41.26.043,2024_RDpaindiscrimination_maintask,2023.2.3,59.98062626381416,2024-02-19 09h41.53.707142 -0500,
1,0,1,0,13,0,13,0,,,,,,,,,,,,,1223.4423606999917,,,,,,,,1223.4278535000049,1228.4257827000692,1228.4257896000054,1228.4423218000447,1240.4263060000958,1,active,41.0,1240.4264619000023,1243.3618688000133,2.0000000000000586,2.916,1240.4590673000785,,,,,,,,,,,,,,,,,,,,,,,,,,,,,,,,,,,,,,sub-024,42.8,41,43.7,COM3,2024-02-19_09h41.26.043,2024_RDpaindiscrimination_maintask,2023.2.3,59.98062626381416,2024-02-19 09h41.53.707142 -0500,
1,0,1,0,14,0,14,0,,,,,,,,,,,,,1243.3758989000926,,,,,,,,1243.3626790000126,1248.359418499982,1248.3594254000345,1248.3759064000333,1260.3598300000886,2,active,41.0,1260.3599759000354,1261.7614630000899,13.000000000000004,1.382,1260.3927041999996,,,,,,,,,,,,,,,,,,,,,,,,,,,,,,,,,,,,,,sub-024,42.8,41,43.7,COM3,2024-02-19_09h41.26.043,2024_RDpaindiscrimination_maintask,2023.2.3,59.98062626381416,2024-02-19 09h41.53.707142 -0500,
1,0,1,0,15,0,15,0,,,,,,,,,,,,,1261.7761443000054,,,,,,,,1261.7622085000621,1266.759611000074,1266.759617100004,1266.7761095000897,1278.7599504000973,3,inactive,42.8,1278.760095900041,1281.0612903999863,61.49999999999993,2.282,1278.7928030000767,,,,,,,,,,,,,,,,,,,,,,,,,,,,,,,,,,,,,,sub-024,42.8,41,43.7,COM3,2024-02-19_09h41.26.043,2024_RDpaindiscrimination_maintask,2023.2.3,59.98062626381416,2024-02-19 09h41.53.707142 -0500,
1,0,1,0,,,,,0,0,0,0,0,0,0,0,,,,,1288.792955400073,,,,,,1287.4435088000027,1288.7765868999995,,,,,,0,active,42.8,1305.7769603000488,1307.6122189000016,40.00000000000011,1.817,,1281.0618960000575,1281.076254600077,1287.4431947000558,1288.7768875000766,1293.776563600055,1293.7765703999903,1293.7929576000897,1305.809891300043,1305.7769514999818,,,,,,,,,,,,,,,,,,,,,,,,,,,,,sub-024,42.8,41,43.7,COM3,2024-02-19_09h41.26.043,2024_RDpaindiscrimination_maintask,2023.2.3,59.98062626381416,2024-02-19 09h41.53.707142 -0500,
1,0,1,0,,,,,0,0,0,0,1,0,1,0,,,,,1307.6265175000299,,,,,,,,,,,,,1,inactive,42.8,1324.6104942000238,1326.4128283000318,60.50000000000007,1.783,,,,,1307.612939100014,1312.6100418000715,1312.6100486000068,1312.6265828000614,1324.6433862000704,1324.6104865000816,,,,,,,,,,,,,,,,,,,,,,,,,,,,,sub-024,42.8,41,43.7,COM3,2024-02-19_09h41.26.043,2024_RDpaindiscrimination_maintask,2023.2.3,59.98062626381416,2024-02-19 09h41.53.707142 -0500,
1,0,1,0,,,,,0,0,0,0,,,,,0,0,0,0,1328.7766261000652,,,,,,,,,,,,,2,active,,,,,,,,,,,,,,,,1326.4133792000357,1328.7602296000114,1328.7605550000444,1333.7601922000758,1333.760199100012,1333.7766794000054,1341.7602160000242,1341.7602160000242,1344.7268012000713,1344.7601144000655,1344.7601144000655,1344.74363250006,4.48,4.32,448,432,8,1.2,0.75,pic-absent,0,n,0.4818104999139905,None,,,,,sub-024,42.8,41,43.7,COM3,2024-02-19_09h41.26.043,2024_RDpaindiscrimination_maintask,2023.2.3,59.98062626381416,2024-02-19 09h41.53.707142 -0500,
1,0,1,0,,,,,0,0,0,0,,,,,1,0,1,0,1344.7601144000655,,,,,,,,,,,,,3,inactive,,,,,,,,,,,,,,,,,,1344.7441859000828,1349.7436736000236,1349.7436809000792,1349.7601752000628,1357.7436578000197,1357.7436578000197,1360.7104173999978,1360.7437443000963,1360.7437443000963,1360.7272588000633,4.73,4.07,473,407,8,1.2,0.75,pic-present,1,m,0.38955510000232607,None,,,,,sub-024,42.8,41,43.7,COM3,2024-02-19_09h41.26.043,2024_RDpaindiscrimination_maintask,2023.2.3,59.98062626381416,2024-02-19 09h41.53.707142 -0500,
1,0,1,0,,,,,0,0,0,0,,,,,2,0,2,0,1360.7437443000963,,,,,,,,,,,,,0,inactive,,,,,,,,,,,,,,,,,,1360.7277204000857,1365.7271575999912,1365.7271699000848,1365.7436784000602,1373.7270904000616,1373.7270904000616,1376.693978800089,1376.7272515000077,1376.7272515000077,1376.7107533999952,3.26,5.54,326,554,8,1.2,0.75,pic-present,1,m,0.350274300086312,None,,,,,sub-024,42.8,41,43.7,COM3,2024-02-19_09h41.26.043,2024_RDpaindiscrimination_maintask,2023.2.3,59.98062626381416,2024-02-19 09h41.53.707142 -0500,
1,0,1,0,,,,,0,0,0,0,,,,,3,0,3,0,1376.7272515000077,,,,,,,,,,,,,1,active,,,,,,,,,,,,,,,,,,1376.7112138000084,1381.710698800045,1381.7107063999865,1381.7271530000726,1389.7106674000388,1389.7106674000388,1392.6772800000617,1392.7106607999885,1392.7106607999885,1392.6941377000185,4.29,4.51,429,451,8,1.2,0.75,pic-absent,0,n,0.35854549997020513,None,,,,,sub-024,42.8,41,43.7,COM3,2024-02-19_09h41.26.043,2024_RDpaindiscrimination_maintask,2023.2.3,59.98062626381416,2024-02-19 09h41.53.707142 -0500,
1,0,1,0,,,,,1,0,1,0,0,0,0,0,,,,,1394.4273005999858,,,,,,1392.694610800012,1394.4109629000304,,,,,,2,inactive,42.8,1411.411352800089,1413.3466677999822,38.99999999999997,1.916,,,,,1394.411329500028,1399.41086850001,1399.4108760000672,1399.4274403000018,1411.4441550000338,1411.4113438000204,,,,,,,,,,,,,,,,,,,,,,,,,,,,,sub-024,42.8,41,43.7,COM3,2024-02-19_09h41.26.043,2024_RDpaindiscrimination_maintask,2023.2.3,59.98062626381416,2024-02-19 09h41.53.707142 -0500,
1,0,1,0,,,,,1,0,1,0,1,0,1,0,,,,,1413.3609073000262,,,,,,,,,,,,,3,active,42.8,1430.3447599000065,1432.4464127999963,42.99999999999993,2.083,,,,,1413.34738130006,1418.3443627000088,1418.3443692000583,1418.360929800081,1430.3777613000711,1430.3447521000635,,,,,,,,,,,,,,,,,,,,,,,,,,,,,sub-024,42.8,41,43.7,COM3,2024-02-19_09h41.26.043,2024_RDpaindiscrimination_maintask,2023.2.3,59.98062626381416,2024-02-19 09h41.53.707142 -0500,
1,0,1,0,,,,,1,0,1,0,,,,,0,0,0,0,1440.2944485000335,,,,,,,,,,,,,0,inactive,,,,,,,,,,,,,,,,1432.4465947999852,1440.278115699999,1440.2784454000648,1445.2779937000014,1445.278001000057,1445.2944982000627,1453.2779428000795,1453.2779428000795,1456.2446960000088,1456.278039500001,1456.278039500001,1456.2614847000223,3.69,5.11,369,511,8,1.2,0.75,pic-present,1,m,0.4079903999809176,None,,,,,sub-024,42.8,41,43.7,COM3,2024-02-19_09h41.26.043,2024_RDpaindiscrimination_maintask,2023.2.3,59.98062626381416,2024-02-19 09h41.53.707142 -0500,
1,0,1,0,,,,,1,0,1,0,,,,,1,0,1,0,1456.278039500001,,,,,,,,,,,,,1,inactive,,,,,,,,,,,,,,,,,,1456.262046399992,1461.2615584000014,1461.2615656000562,1461.2780302000465,1469.2614769000793,1469.2614769000793,1472.228179500089,1472.2614851000253,1472.2614851000253,1472.24497530004,3.33,5.47,333,547,8,1.2,0.75,pic-absent,0,n,0.3680969000561163,None,,,,,sub-024,42.8,41,43.7,COM3,2024-02-19_09h41.26.043,2024_RDpaindiscrimination_maintask,2023.2.3,59.98062626381416,2024-02-19 09h41.53.707142 -0500,
1,0,1,0,,,,,1,0,1,0,,,,,2,0,2,0,1472.2614851000253,,,,,,,,,,,,,2,active,,,,,,,,,,,,,,,,,,1472.2454320000252,1477.2451052999822,1477.245112500037,1477.2615273999982,1485.2450765999965,1485.2450765999965,1488.2116420000093,1488.2449704000028,1488.2449704000028,1488.2284895000048,4.68,4.12,468,412,8,1.2,0.75,pic-present,1,m,0.37277529994025826,None,,,,,sub-024,42.8,41,43.7,COM3,2024-02-19_09h41.26.043,2024_RDpaindiscrimination_maintask,2023.2.3,59.98062626381416,2024-02-19 09h41.53.707142 -0500,
1,0,1,0,,,,,1,0,1,0,,,,,3,0,3,0,1488.2449704000028,,,,,,,,,,,,,3,inactive,,,,,,,,,,,,,,,,,,1488.2289355000248,1493.2286158000352,1493.2286232000915,1493.245021800045,1501.2284386000829,1501.2284386000829,1504.1951380000683,1504.2284966000589,1504.2284966000589,1504.211976199993,3.92,4.88,392,488,8,1.2,0.75,pic-absent,0,n,0.9931304999627173,None,,,,,sub-024,42.8,41,43.7,COM3,2024-02-19_09h41.26.043,2024_RDpaindiscrimination_maintask,2023.2.3,59.98062626381416,2024-02-19 09h41.53.707142 -0500,
1,0,1,0,,,,,2,0,2,0,0,0,0,0,,,,,1505.8617908000015,,,,,,1504.2124912000727,1505.8456221000524,,,,,,0,active,42.8,1522.8459561000345,1525.2654086999828,36.000000000000014,2.4,,,,,1505.845914100064,1510.8453411000082,1510.8453486000653,1510.8618426000467,1522.878732800018,1522.8459474000847,,,,,,,,,,,,,,,,,,,,,,,,,,,,,sub-024,42.8,41,43.7,COM3,2024-02-19_09h41.26.043,2024_RDpaindiscrimination_maintask,2023.2.3,59.98062626381416,2024-02-19 09h41.53.707142 -0500,
1,0,1,0,,,,,2,0,2,0,1,0,1,0,,,,,1525.2786918000784,,,,,,,,,,,,,1,inactive,42.8,1542.2625198999885,1543.481682099984,60.0,1.201,,,,,1525.2661953000352,1530.2621990999905,1530.2622057000408,1530.2786816000007,1542.2954997000052,1542.2625116000418,,,,,,,,,,,,,,,,,,,,,,,,,,,,,sub-024,42.8,41,43.7,COM3,2024-02-19_09h41.26.043,2024_RDpaindiscrimination_maintask,2023.2.3,59.98062626381416,2024-02-19 09h41.53.707142 -0500,
1,0,1,0,,,,,2,0,2,0,,,,,0,0,0,0,1545.928866500035,,,,,,,,,,,,,2,inactive,,,,,,,,,,,,,,,,1543.4822003000882,1545.9125117000658,1545.9128216999816,1550.912412500009,1550.912419600063,1550.928969600005,1558.9123040999984,1558.9123040999984,1561.8790270000463,1561.9123695000308,1561.9123695000308,1561.8959086000687,3.75,5.05,375,505,8,1.2,0.75,pic-absent,0,n,0.39734989998396486,None,,,,,sub-024,42.8,41,43.7,COM3,2024-02-19_09h41.26.043,2024_RDpaindiscrimination_maintask,2023.2.3,59.98062626381416,2024-02-19 09h41.53.707142 -0500,
1,0,1,0,,,,,2,0,2,0,,,,,1,0,1,0,1561.9123695000308,,,,,,,,,,,,,3,active,,,,,,,,,,,,,,,,,,1561.8964708000422,1566.8959230000619,1566.8959314000094,1566.9124245999847,1574.8959462000057,1574.8959462000057,1577.862569399993,1577.8959437999874,1577.8959437999874,1577.8794357000152,4.58,4.22,458,422,8,1.2,0.75,pic-present,1,m,0.3091020999709144,None,,,,,sub-024,42.8,41,43.7,COM3,2024-02-19_09h41.26.043,2024_RDpaindiscrimination_maintask,2023.2.3,59.98062626381416,2024-02-19 09h41.53.707142 -0500,
1,0,1,0,,,,,2,0,2,0,,,,,2,0,2,0,1577.8959437999874,,,,,,,,,,,,,0,active,,,,,,,,,,,,,,,,,,1577.879882600042,1582.8794338000007,1582.8794411000563,1582.8960072000045,1590.8793891000096,1590.8793891000096,1593.8460694000823,1593.8794054000173,1593.8794054000173,1593.8629282000475,3.81,4.99,381,499,8,1.2,0.75,pic-absent,0,n,0.3617866999702528,None,,,,,sub-024,42.8,41,43.7,COM3,2024-02-19_09h41.26.043,2024_RDpaindiscrimination_maintask,2023.2.3,59.98062626381416,2024-02-19 09h41.53.707142 -0500,
1,0,1,0,,,,,2,0,2,0,,,,,3,0,3,0,1593.8794054000173,,,,,,,,,,,,,1,inactive,,,,,,,,,,,,,,,,,,1593.8634050000692,1598.8629434000468,1598.8629550000187,1598.8794331999961,1606.862902300083,1606.862902300083,1609.8295634000096,1609.862943700049,1609.862943700049,1609.8464234999847,4.51,4.29,451,429,8,1.2,0.75,pic-present,1,m,1.3110707000596449,None,,,,,sub-024,42.8,41,43.7,COM3,2024-02-19_09h41.26.043,2024_RDpaindiscrimination_maintask,2023.2.3,59.98062626381416,2024-02-19 09h41.53.707142 -0500,
1,0,1,0,,,,,3,0,3,0,0,0,0,0,,,,,1611.7296271000523,,,,,,1609.846894800081,1611.7132931000087,,,,,,2,inactive,42.8,1628.7136330000358,1630.281342900009,29.000000000000075,1.549,,,,,1611.7136198000517,1616.7131800000789,1616.7131870000158,1616.7296063000103,1628.746527899988,1628.7136242000852,,,,,,,,,,,,,,,,,,,,,,,,,,,,,sub-024,42.8,41,43.7,COM3,2024-02-19_09h41.26.043,2024_RDpaindiscrimination_maintask,2023.2.3,59.98062626381416,2024-02-19 09h41.53.707142 -0500,
1,0,1,0,,,,,3,0,3,0,1,0,1,0,,,,,1630.296465100022,,,,,,,,,,,,,3,active,42.8,1647.2803303999826,1649.4151324999984,46.499999999999915,2.115,,,,,1630.2819951000856,1635.2799871000461,1635.2799945999868,1635.29649540002,1647.313355899998,1647.2803219000343,,,,,,,,,,,,,,,,,,,,,,,,,,,,,sub-024,42.8,41,43.7,COM3,2024-02-19_09h41.26.043,2024_RDpaindiscrimination_maintask,2023.2.3,59.98062626381416,2024-02-19 09h41.53.707142 -0500,
1,0,1,0,,,,,3,0,3,0,,,,,0,0,0,0,1651.04673000006,,,,,,,,,,,,,0,active,,,,,,,,,,,,,,,,1649.4156931000762,1651.0303182000061,1651.0306398000102,1656.03023090004,1656.030237600091,1656.0467320000753,1664.030091600027,1664.030091600027,1666.9967909000115,1667.0301661000121,1667.0301661000121,1667.0136515999911,3.44,5.36,344,536,8,1.2,0.75,pic-present,1,m,0.6634098999202251,None,,,,,sub-024,42.8,41,43.7,COM3,2024-02-19_09h41.26.043,2024_RDpaindiscrimination_maintask,2023.2.3,59.98062626381416,2024-02-19 09h41.53.707142 -0500,
1,0,1,0,,,,,3,0,3,0,,,,,1,0,1,0,1667.0301661000121,,,,,,,,,,,,,1,active,,,,,,,,,,,,,,,,,,1667.0141821000725,1672.0137114999816,1672.0137188000372,1672.0301502000075,1680.013583400054,1680.013583400054,1682.9802996000508,1683.0136244000169,1683.0136244000169,1682.997145100031,4.0,4.8,400,480,8,1.2,0.75,pic-absent,0,n,0.3439925001002848,None,,,,,sub-024,42.8,41,43.7,COM3,2024-02-19_09h41.26.043,2024_RDpaindiscrimination_maintask,2023.2.3,59.98062626381416,2024-02-19 09h41.53.707142 -0500,
1,0,1,0,,,,,3,0,3,0,,,,,2,0,2,0,1683.0136244000169,,,,,,,,,,,,,2,inactive,,,,,,,,,,,,,,,,,,1682.9976209000451,1687.997161300038,1687.9971692999825,1688.0137088000774,1695.997117400053,1695.997117400053,1698.9638654000591,1698.9971652000677,1698.9971652000677,1698.9806612000102,4.5,4.3,450,430,8,1.2,0.75,pic-absent,0,n,0.39611480000894517,None,,,,,sub-024,42.8,41,43.7,COM3,2024-02-19_09h41.26.043,2024_RDpaindiscrimination_maintask,2023.2.3,59.98062626381416,2024-02-19 09h41.53.707142 -0500,
1,0,1,0,,,,,3,0,3,0,,,,,3,0,3,0,1698.9971652000677,,,,,,,,,,,,,3,active,,,,,,,,,,,,,,,,,,1698.9811357000144,1703.9806853000773,1703.9806930000195,1703.9972075000405,1711.980622400064,1711.980622400064,1714.9473644000245,1714.9806159000145,1714.9806159000145,1714.964176999987,3.41,5.39,341,539,8,1.2,0.75,pic-present,1,m,0.3566976999863982,None,,,,,sub-024,42.8,41,43.7,COM3,2024-02-19_09h41.26.043,2024_RDpaindiscrimination_maintask,2023.2.3,59.98062626381416,2024-02-19 09h41.53.707142 -0500,
,,,,,,,,,,,,,,,,,,,,,,,,,,,,,,,,,,,,,,,,,,,,,,,,,,,,,,,,,,,,,,,,,,,,,,,,,,1714.96462600003,1717.6810440000845,1717.6810659000184,1727.6809345000656,,,,,,,,,,,
