trials.thisRepN,trials.thisTrialN,trials.thisN,trials.thisIndex,loop_test.thisRepN,loop_test.thisTrialN,loop_test.thisN,loop_test.thisIndex,loop_eval_discri.thisRepN,loop_eval_discri.thisTrialN,loop_eval_discri.thisN,loop_eval_discri.thisIndex,loop_eval.thisRepN,loop_eval.thisTrialN,loop_eval.thisN,loop_eval.thisIndex,loop_discri.thisRepN,loop_discri.thisTrialN,loop_discri.thisN,loop_discri.thisIndex,thisRow.t,notes,Set_up.started,Set_up.stopped,electrode_check.started,electrode_check.stopped,instructions_eval.started,instructions_eval.stopped,pause_5_test.started,pause_5_test.stopped,Phase_Test.started,thermode_locali.started,Phase_Test.stopped,loca_thermode,condition,temp_trial_sent,eval_douleur.started,eval_douleur.stopped,ratingScale.response,ratingScale.rt,thermode_locali.stopped,Fin_test.started,text.started,Fin_test.stopped,pause_5_EVA.started,pause_5_EVA.stopped,tâche_EVA.started,thermode_locali_EVA.started,thermode_locali_EVA.stopped,tâche_EVA.stopped,instructions_discrim.started,instructions_discrim.stopped,pause_5_pic.started,pause_5_pic.stopped,tâche_PIC.started,thermode_locali_pic.started,percu_or.started,responser.started,percu_or.stopped,responser.stopped,thermode_locali_pic.stopped,tâche_PIC.stopped,dur_plateau1,dur_plateau2,dur_plateau1_sent,dur_plateau2_sent,start_plateau_2_resp,dur_pic,dur_rise,pic_presence,pic_response,discrimin_resp.keys,discrimin_resp.rt,discrimin_resp.duration,break_entre_bloc.started,break_entre_bloc.stopped,merci.started,merci.stopped,participant,temp_flat,temp_active,temp_pic_set,com_thermode,date,expName,psychopyVersion,frameRate,expStart,
0,0,0,0,0,0,0,0,,,,,,,,,,,,,146.46416959999988,,0.010729800000262912,142.0990726,142.09984110000005,143.69836010000017,143.69837480000024,146.43176790000052,146.43238800000017,151.44771570000012,151.44772720000037,151.46429640000042,163.4479878000002,0,inactive,46.9,163.44800230000055,167.23421839999992,38.99999999999993,3.68,,,,,,,,,,,,,,,,,,,,,,,,,,,,,,,,,,,,,,,sub-007,46.9,46,47.9,COM3,2024-01-29_09h43.57.090,2024_RDpaindiscrimination_maintask,2023.2.3,60.00340819345127,2024-01-29 09h44.23.765859 -0500,
0,0,0,0,1,0,1,0,,,,,,,,,,,,,167.24803800000063,,,,,,,,167.23487170000044,172.23197560000062,172.23198690000027,172.2481613,184.2328047000001,1,active,46.9,184.23281889999998,188.71877719999975,21.000000000000103,4.416,184.31508750000012,,,,,,,,,,,,,,,,,,,,,,,,,,,,,,,,,,,,,,sub-007,46.9,46,47.9,COM3,2024-01-29_09h43.57.090,2024_RDpaindiscrimination_maintask,2023.2.3,60.00340819345127,2024-01-29 09h44.23.765859 -0500,
0,0,0,0,2,0,2,0,,,,,,,,,,,,,188.7486703000004,,,,,,,,188.72056890000022,193.73205570000027,193.7320662000002,193.74869180000042,205.7323649,2,inactive,46.9,205.73237960000006,209.61793370000032,39.49999999999993,3.816,,,,,,,,,,,,,,,,,,,,,,,,,,,,,,,,,,,,,,,sub-007,46.9,46,47.9,COM3,2024-01-29_09h43.57.090,2024_RDpaindiscrimination_maintask,2023.2.3,60.00340819345127,2024-01-29 09h44.23.765859 -0500,
0,0,0,0,3,0,3,0,,,,,,,,,,,,,209.63240430000042,,,,,,,,209.61905019999995,214.61637430000064,214.6163858,214.63254430000052,226.6171129000004,3,inactive,46.9,226.61712720000014,233.0691228000005,39.50000000000011,6.382,226.69950719999997,,,,,,,,,,,,,,,,,,,,,,,,,,,,,,,,,,,,,,sub-007,46.9,46,47.9,COM3,2024-01-29_09h43.57.090,2024_RDpaindiscrimination_maintask,2023.2.3,60.00340819345127,2024-01-29 09h44.23.765859 -0500,
0,0,0,0,4,0,4,0,,,,,,,,,,,,,233.09969499999988,,,,,,,,233.07083140000032,238.08319029999984,238.08320120000008,238.0997680999999,250.08347420000064,0,active,46.9,250.08348860000024,256.9523164000002,30.000000000000043,6.72,,,,,,,,,,,,,,,,,,,,,,,,,,,,,,,,,,,,,,,sub-007,46.9,46,47.9,COM3,2024-01-29_09h43.57.090,2024_RDpaindiscrimination_maintask,2023.2.3,60.00340819345127,2024-01-29 09h44.23.765859 -0500,
0,0,0,0,5,0,5,0,,,,,,,,,,,,,256.9669051000001,,,,,,,,256.9528932000003,261.95098080000025,261.95099260000006,261.96704320000026,273.95158040000024,1,inactive,46.9,273.95159460000013,278.6198591000002,45.999999999999915,4.598,274.0340127999998,,,,,,,,,,,,,,,,,,,,,,,,,,,,,,,,,,,,,,sub-007,46.9,46,47.9,COM3,2024-01-29_09h43.57.090,2024_RDpaindiscrimination_maintask,2023.2.3,60.00340819345127,2024-01-29 09h44.23.765859 -0500,
0,0,0,0,6,0,6,0,,,,,,,,,,,,,278.6341194000006,,,,,,,,278.62044890000016,283.61818010000025,283.6181913999999,283.6342441000006,295.61887579999984,2,active,46.9,295.6188904999999,299.90456090000043,27.500000000000043,4.216,295.70120920000045,,,,,,,,,,,,,,,,,,,,,,,,,,,,,,,,,,,,,,sub-007,46.9,46,47.9,COM3,2024-01-29_09h43.57.090,2024_RDpaindiscrimination_maintask,2023.2.3,60.00340819345127,2024-01-29 09h44.23.765859 -0500,
0,0,0,0,7,0,7,0,,,,,,,,,,,,,299.9346480000004,,,,,,,,299.9062555999999,304.9181331,304.9181438000005,304.9347678000004,316.9184587999998,3,inactive,46.9,316.91847380000036,321.4887147999998,44.49999999999999,4.501,,,,,,,,,,,,,,,,,,,,,,,,,,,,,,,,,,,,,,,sub-007,46.9,46,47.9,COM3,2024-01-29_09h43.57.090,2024_RDpaindiscrimination_maintask,2023.2.3,60.00340819345127,2024-01-29 09h44.23.765859 -0500,
0,0,0,0,8,0,8,0,,,,,,,,,,,,,321.51865050000015,,,,,,,,321.4904194999999,326.5020187,326.5020292999998,326.51861689999987,338.50231930000064,0,active,46.9,338.50233410000055,343.6048503000002,18.500000000000213,5.032,,,,,,,,,,,,,,,,,,,,,,,,,,,,,,,,,,,,,,,sub-007,46.9,46,47.9,COM3,2024-01-29_09h43.57.090,2024_RDpaindiscrimination_maintask,2023.2.3,60.00340819345127,2024-01-29 09h44.23.765859 -0500,
0,0,0,0,9,0,9,0,,,,,,,,,,,,,343.6190602000006,,,,,,,,343.60542840000016,348.6030952000001,348.6031068000002,348.6191796000003,360.6037868000003,1,inactive,46.9,360.60380050000003,364.4892891999998,41.50000000000003,3.816,360.6861454,,,,,,,,,,,,,,,,,,,,,,,,,,,,,,,,,,,,,,sub-007,46.9,46,47.9,COM3,2024-01-29_09h43.57.090,2024_RDpaindiscrimination_maintask,2023.2.3,60.00340819345127,2024-01-29 09h44.23.765859 -0500,
0,0,0,0,10,0,10,0,,,,,,,,,,,,,364.5196448000006,,,,,,,,364.4910706999999,369.50307650000013,369.50308740000037,369.51969890000055,381.50334850000036,2,active,46.9,381.5033633000003,385.79018630000064,11.500000000000064,4.218,,,,,,,,,,,,,,,,,,,,,,,,,,,,,,,,,,,,,,,sub-007,46.9,46,47.9,COM3,2024-01-29_09h43.57.090,2024_RDpaindiscrimination_maintask,2023.2.3,60.00340819345127,2024-01-29 09h44.23.765859 -0500,
0,0,0,0,11,0,11,0,,,,,,,,,,,,,385.8202373000004,,,,,,,,385.79192539999985,390.80362610000066,390.80363639999996,390.82038400000056,402.8039137000005,3,active,46.9,402.8039284000006,407.1582534999998,7.5000000000001315,4.285,,,,,,,,,,,,,,,,,,,,,,,,,,,,,,,,,,,,,,,sub-007,46.9,46,47.9,COM3,2024-01-29_09h43.57.090,2024_RDpaindiscrimination_maintask,2023.2.3,60.00340819345127,2024-01-29 09h44.23.765859 -0500,
0,0,0,0,12,0,12,0,,,,,,,,,,,,,407.1873118000003,,,,,,,,407.1599608000006,412.1708045000005,412.17081529999996,412.18741039999986,424.17106590000003,0,inactive,46.9,424.17108030000054,429.35756740000033,50.999999999999886,5.117,,,,,,,,,,,,,,,,,,,,,,,,,,,,,,,,,,,,,,,sub-007,46.9,46,47.9,COM3,2024-01-29_09h43.57.090,2024_RDpaindiscrimination_maintask,2023.2.3,60.00340819345127,2024-01-29 09h44.23.765859 -0500,
0,0,0,0,13,0,13,0,,,,,,,,,,,,,429.3711970000004,,,,,,,,429.3581589000005,434.35514280000007,434.3551545,434.3712833999998,446.3559707000004,1,active,46.9,446.3559853000006,448.99085770000056,17.500000000000068,2.565,446.4382513999999,,,,,,,,,,,,,,,,,,,,,,,,,,,,,,,,,,,,,,sub-007,46.9,46,47.9,COM3,2024-01-29_09h43.57.090,2024_RDpaindiscrimination_maintask,2023.2.3,60.00340819345127,2024-01-29 09h44.23.765859 -0500,
0,0,0,0,14,0,14,0,,,,,,,,,,,,,449.00500720000036,,,,,,,,448.99147640000047,453.9890341,453.9890452999998,454.00510120000035,465.9897488000006,2,inactive,46.9,465.98976349999975,469.40845979999995,44.00000000000013,3.349,466.0720898999998,,,,,,,,,,,,,,,,,,,,,,,,,,,,,,,,,,,,,,sub-007,46.9,46,47.9,COM3,2024-01-29_09h43.57.090,2024_RDpaindiscrimination_maintask,2023.2.3,60.00340819345127,2024-01-29 09h44.23.765859 -0500,
0,0,0,0,15,0,15,0,,,,,,,,,,,,,469.43885020000016,,,,,,,,469.4101424999999,474.4223442000002,474.4223552000003,474.43908100000044,486.42263150000053,3,active,46.9,486.4226466,490.1255740000006,6.00000000000013,3.633,,,,,,,,,,,,,,,,,,,,,,,,,,,,,,,,,,,,,,,sub-007,46.9,46,47.9,COM3,2024-01-29_09h43.57.090,2024_RDpaindiscrimination_maintask,2023.2.3,60.00340819345127,2024-01-29 09h44.23.765859 -0500,
0,0,0,0,,,,,0,0,0,0,0,0,0,0,,,,,508.30643409999993,,,,,,505.4748459000002,508.2908533,,,,,,0,inactive,46.9,525.2912176999998,529.8268785,43.50000000000013,4.466,,490.1259518000006,490.1393310000003,505.4741592999999,508.29145470000003,513.2904214,513.2904336000001,513.3065907,525.3735175000002,525.2912037000006,,,,,,,,,,,,,,,,,,,,,,,,,,,,,sub-007,46.9,46,47.9,COM3,2024-01-29_09h43.57.090,2024_RDpaindiscrimination_maintask,2023.2.3,60.00340819345127,2024-01-29 09h44.23.765859 -0500,
0,0,0,0,,,,,0,0,0,0,1,0,1,0,,,,,529.8403120000003,,,,,,,,,,,,,1,active,46.9,546.8250778000001,551.8272409000001,32.500000000000036,4.933,,,,,529.8274188000005,534.8242480999997,534.8242599000005,534.8404371000006,546.907424,546.8250656,,,,,,,,,,,,,,,,,,,,,,,,,,,,,sub-007,46.9,46,47.9,COM3,2024-01-29_09h43.57.090,2024_RDpaindiscrimination_maintask,2023.2.3,60.00340819345127,2024-01-29 09h44.23.765859 -0500,
0,0,0,0,,,,,0,0,0,0,,,,,0,0,0,0,559.9077272000004,,,,,,,,,,,,,2,inactive,,,,,,,,,,,,,,,,551.8281901999999,559.8921780000001,559.8928304000001,564.8917664999999,564.8917790000005,564.9078583,572.3913700000003,572.3913700000003,575.3914605,575.3914605,575.8581187,575.8420431000004,3.91,4.89,391,488,7.5,1.2,0.75,pic-absent,0,m,0.5881847999999081,None,,,,,sub-007,46.9,46,47.9,COM3,2024-01-29_09h43.57.090,2024_RDpaindiscrimination_maintask,2023.2.3,60.00340819345127,2024-01-29 09h44.23.765859 -0500,
0,0,0,0,,,,,0,0,0,0,,,,,1,0,1,0,575.8581187,,,,,,,,,,,,,3,inactive,,,,,,,,,,,,,,,,,,575.8440276000001,580.8422909000001,580.8423041000005,580.8582671000004,588.358432,588.358432,591.3585213000006,591.3585213000006,591.8085314,591.7924293000005,3.29,5.51,329,551,7.5,1.2,0.75,pic-absent,1,n,0.8969295999995666,None,,,,,sub-007,46.9,46,47.9,COM3,2024-01-29_09h43.57.090,2024_RDpaindiscrimination_maintask,2023.2.3,60.00340819345127,2024-01-29 09h44.23.765859 -0500,
0,0,0,0,,,,,0,0,0,0,,,,,2,0,2,0,591.8085314,,,,,,,,,,,,,0,active,,,,,,,,,,,,,,,,,,591.7939797999998,596.7925667,596.7925800000003,596.8086491000004,604.3088422999999,604.3088422999999,607.3089177000002,607.3089177000002,607.7589297000004,607.7428307999999,3.39,5.41,339,541,7.5,1.2,0.75,pic-present,1,n,0.4666319999996631,None,,,,,sub-007,46.9,46,47.9,COM3,2024-01-29_09h43.57.090,2024_RDpaindiscrimination_maintask,2023.2.3,60.00340819345127,2024-01-29 09h44.23.765859 -0500,
0,0,0,0,,,,,0,0,0,0,,,,,3,0,3,0,607.7589297000004,,,,,,,,,,,,,1,active,,,,,,,,,,,,,,,,,,607.7443696999999,612.7428821000003,612.7428950000003,612.7590550000004,620.2592008000001,620.2592008000001,623.2592832999999,623.2592832999999,623.7093240000004,623.6931436000004,4.17,4.63,417,463,7.5,1.2,0.75,pic-absent,0,m,0.5561706999997114,None,,,,,sub-007,46.9,46,47.9,COM3,2024-01-29_09h43.57.090,2024_RDpaindiscrimination_maintask,2023.2.3,60.00340819345127,2024-01-29 09h44.23.765859 -0500,
0,0,0,0,,,,,1,0,1,0,0,0,0,0,,,,,627.1594438000002,,,,,,623.6947260000006,627.1434049999998,,,,,,2,active,46.9,644.1440791000005,647.8968359,31.499999999999957,3.684,,,,,627.1441441000006,632.1434279000005,632.1434402000004,632.1595381000006,644.2264985000002,644.1440674000005,,,,,,,,,,,,,,,,,,,,,,,,,,,,,sub-007,46.9,46,47.9,COM3,2024-01-29_09h43.57.090,2024_RDpaindiscrimination_maintask,2023.2.3,60.00340819345127,2024-01-29 09h44.23.765859 -0500,
0,0,0,0,,,,,1,0,1,0,1,0,1,0,,,,,647.9267094000006,,,,,,,,,,,,,3,inactive,46.9,664.9104232999998,669.229437,36.50000000000005,4.25,,,,,647.8983904000006,652.9101007999998,652.9101129999999,652.9267031999998,,664.9104102000001,,,,,,,,,,,,,,,,,,,,,,,,,,,,,sub-007,46.9,46,47.9,COM3,2024-01-29_09h43.57.090,2024_RDpaindiscrimination_maintask,2023.2.3,60.00340819345127,2024-01-29 09h44.23.765859 -0500,
0,0,0,0,,,,,1,0,1,0,,,,,0,0,0,0,672.0771534000005,,,,,,,,,,,,,0,inactive,,,,,,,,,,,,,,,,669.2304258000004,672.0614679,672.0621596999999,677.0611244000002,677.0611367000001,677.0773159,684.5608352999998,684.5608352999998,687.5608853000003,687.5608853000003,688.0275853000003,688.0113879,3.61,5.19,361,519,7.5,1.2,0.75,pic-present,1,n,0.45392139999967185,None,,,,,sub-007,46.9,46,47.9,COM3,2024-01-29_09h43.57.090,2024_RDpaindiscrimination_maintask,2023.2.3,60.00340819345127,2024-01-29 09h44.23.765859 -0500,
0,0,0,0,,,,,1,0,1,0,,,,,1,0,1,0,688.0275853000003,,,,,,,,,,,,,1,active,,,,,,,,,,,,,,,,,,688.0130943000004,693.0115922000005,693.0116056000006,693.0277073000007,700.5278926999999,700.5278926999999,703.5279705000003,703.5279705000003,703.9779822999999,703.9618550000005,4.23,4.57,423,457,7.5,1.2,0.75,pic-absent,0,m,0.85552110000026,None,,,,,sub-007,46.9,46,47.9,COM3,2024-01-29_09h43.57.090,2024_RDpaindiscrimination_maintask,2023.2.3,60.00340819345127,2024-01-29 09h44.23.765859 -0500,
0,0,0,0,,,,,1,0,1,0,,,,,2,0,2,0,703.9779822999999,,,,,,,,,,,,,2,inactive,,,,,,,,,,,,,,,,,,703.9634009000001,708.9620110000005,708.9620242000001,708.9781769000001,716.4782961000001,716.4782961000001,719.4783619,719.4783619,719.9283707000004,719.9122182000001,3.57,5.23,357,523,7.5,1.2,0.75,pic-present,1,n,0.3365873000002466,None,,,,,sub-007,46.9,46,47.9,COM3,2024-01-29_09h43.57.090,2024_RDpaindiscrimination_maintask,2023.2.3,60.00340819345127,2024-01-29 09h44.23.765859 -0500,
0,0,0,0,,,,,1,0,1,0,,,,,3,0,3,0,719.9283707000004,,,,,,,,,,,,,3,inactive,,,,,,,,,,,,,,,,,,719.9137602000001,724.9123574000005,724.9123700999999,724.9284809000001,732.4286889000005,732.4286889000005,735.4287652000003,735.4287652000003,735.8787712000003,735.8626281000006,4.16,4.64,416,463,7.5,1.2,0.75,pic-absent,0,m,0.3786681999999928,None,,,,,sub-007,46.9,46,47.9,COM3,2024-01-29_09h43.57.090,2024_RDpaindiscrimination_maintask,2023.2.3,60.00340819345127,2024-01-29 09h44.23.765859 -0500,
0,0,0,0,,,,,2,0,2,0,0,0,0,0,,,,,739.4121787000004,,,,,,735.8642435000002,739.3965162000004,,,,,,0,inactive,46.9,756.3969279000003,760.1973740000003,48.4999999999999,3.731,,,,,739.3971470000006,744.3961691000004,744.3961813000005,744.4122819000004,756.4792730999998,756.3969142000005,,,,,,,,,,,,,,,,,,,,,,,,,,,,,sub-007,46.9,46,47.9,COM3,2024-01-29_09h43.57.090,2024_RDpaindiscrimination_maintask,2023.2.3,60.00340819345127,2024-01-29 09h44.23.765859 -0500,
0,0,0,0,,,,,2,0,2,0,1,0,1,0,,,,,760.2128214000004,,,,,,,,,,,,,1,active,46.9,777.1975106,782.4145773999999,35.50000000000003,5.147,,,,,760.1983127000003,765.1966296999999,765.1966419999999,765.2128152000005,777.2797633,777.1974963000002,,,,,,,,,,,,,,,,,,,,,,,,,,,,,sub-007,46.9,46,47.9,COM3,2024-01-29_09h43.57.090,2024_RDpaindiscrimination_maintask,2023.2.3,60.00340819345127,2024-01-29 09h44.23.765859 -0500,
0,0,0,0,,,,,2,0,2,0,,,,,0,0,0,0,786.6467010000006,,,,,,,,,,,,,2,active,,,,,,,,,,,,,,,,782.4149088000004,786.6310137,786.6316691000002,791.6306728999998,791.6306860000004,791.6468220000006,799.1303048,799.1303048,802.1304174000006,802.1304174000006,802.5970785,802.5809785000001,4.06,4.74,405,474,7.5,1.2,0.75,pic-present,1,n,0.4323909000004278,None,,,,,sub-007,46.9,46,47.9,COM3,2024-01-29_09h43.57.090,2024_RDpaindiscrimination_maintask,2023.2.3,60.00340819345127,2024-01-29 09h44.23.765859 -0500,
0,0,0,0,,,,,2,0,2,0,,,,,1,0,1,0,802.5970785,,,,,,,,,,,,,3,active,,,,,,,,,,,,,,,,,,802.5826692999999,807.5810703000006,807.5810834000004,807.5972031000001,815.0973908000005,815.0973908000005,818.0974671000004,818.0974671000004,818.5474728999998,818.5314032000006,3.81,4.99,381,499,7.5,1.2,0.75,pic-present,1,n,0.5501075000001947,None,,,,,sub-007,46.9,46,47.9,COM3,2024-01-29_09h43.57.090,2024_RDpaindiscrimination_maintask,2023.2.3,60.00340819345127,2024-01-29 09h44.23.765859 -0500,
0,0,0,0,,,,,2,0,2,0,,,,,2,0,2,0,818.5474728999998,,,,,,,,,,,,,0,inactive,,,,,,,,,,,,,,,,,,818.5329406000001,823.5314247000006,823.5314374999998,823.5476072000001,831.0477858000004,831.0477858000004,834.0478511000001,834.0478511000001,834.4978730000003,834.4817825999999,4.13,4.67,413,467,7.5,1.2,0.75,pic-absent,0,m,0.5916886999993949,None,,,,,sub-007,46.9,46,47.9,COM3,2024-01-29_09h43.57.090,2024_RDpaindiscrimination_maintask,2023.2.3,60.00340819345127,2024-01-29 09h44.23.765859 -0500,
0,0,0,0,,,,,2,0,2,0,,,,,3,0,3,0,834.4978730000003,,,,,,,,,,,,,1,inactive,,,,,,,,,,,,,,,,,,834.4833164000001,839.4818610000002,839.4818737000005,839.4979938000006,846.9981788000005,846.9981788000005,849.9982547999998,849.9982547999998,850.4482613999999,850.4320830000006,3.33,5.47,333,547,7.5,1.2,0.75,pic-present,1,n,0.3970854999997755,None,,,,,sub-007,46.9,46,47.9,COM3,2024-01-29_09h43.57.090,2024_RDpaindiscrimination_maintask,2023.2.3,60.00340819345127,2024-01-29 09h44.23.765859 -0500,
0,0,0,0,,,,,3,0,3,0,0,0,0,0,,,,,852.6150121000001,,,,,,850.4336694000003,852.5990413999998,,,,,,2,active,46.9,869.5997811000007,872.2520556999998,34.50000000000006,2.584,,,,,852.5998386000001,857.5990247,857.5990368000002,857.6150904000006,869.6820966000005,869.5997696000004,,,,,,,,,,,,,,,,,,,,,,,,,,,,,sub-007,46.9,46,47.9,COM3,2024-01-29_09h43.57.090,2024_RDpaindiscrimination_maintask,2023.2.3,60.00340819345127,2024-01-29 09h44.23.765859 -0500,
0,0,0,0,,,,,3,0,3,0,1,0,1,0,,,,,872.2821957000006,,,,,,,,,,,,,3,inactive,46.9,889.2659813999999,894.4189709000002,36.500000000000085,5.084,,,,,872.2536386000002,877.2656796000001,877.2656913999999,877.2822858,,889.2659693000005,,,,,,,,,,,,,,,,,,,,,,,,,,,,,sub-007,46.9,46,47.9,COM3,2024-01-29_09h43.57.090,2024_RDpaindiscrimination_maintask,2023.2.3,60.00340819345127,2024-01-29 09h44.23.765859 -0500,
0,0,0,0,,,,,3,0,3,0,,,,,0,0,0,0,897.2327777999999,,,,,,,,,,,,,0,active,,,,,,,,,,,,,,,,894.4199206000003,897.2182260999998,897.2200435000004,902.2167135999998,902.2167258999998,902.2329042000001,909.7330877000004,909.7330877000004,912.7331640000002,912.7331640000002,913.1831532000006,913.1667660000003,4.21,4.59,421,459,7.5,1.2,0.75,pic-absent,0,m,1.0383430999991106,None,,,,,sub-007,46.9,46,47.9,COM3,2024-01-29_09h43.57.090,2024_RDpaindiscrimination_maintask,2023.2.3,60.00340819345127,2024-01-29 09h44.23.765859 -0500,
0,0,0,0,,,,,3,0,3,0,,,,,1,0,1,0,913.1831532000006,,,,,,,,,,,,,1,inactive,,,,,,,,,,,,,,,,,,913.1684848000004,918.1671797999998,918.1671923000004,918.1832941000002,925.6834806000006,925.6834806000006,928.6835572,928.6835572,929.1335595999999,929.1174623000006,3.68,5.12,368,512,7.5,1.2,0.75,pic-present,1,n,0.37578209999992396,None,,,,,sub-007,46.9,46,47.9,COM3,2024-01-29_09h43.57.090,2024_RDpaindiscrimination_maintask,2023.2.3,60.00340819345127,2024-01-29 09h44.23.765859 -0500,
0,0,0,0,,,,,3,0,3,0,,,,,2,0,2,0,929.1335595999999,,,,,,,,,,,,,2,active,,,,,,,,,,,,,,,,,,929.1189797000006,934.1175057,934.1175185000002,934.133675,941.6338800000003,941.6338800000003,944.6339324999999,944.6339324999999,945.0839501,945.0678822999998,3.82,4.98,382,498,7.5,1.2,0.75,pic-absent,0,m,0.4651190000004135,None,,,,,sub-007,46.9,46,47.9,COM3,2024-01-29_09h43.57.090,2024_RDpaindiscrimination_maintask,2023.2.3,60.00340819345127,2024-01-29 09h44.23.765859 -0500,
0,0,0,0,,,,,3,0,3,0,,,,,3,0,3,0,945.0839501,,,,,,,,,,,,,3,active,,,,,,,,,,,,,,,,,,945.0694096000007,950.0679035000003,950.0679159000001,950.0840852000001,957.5842696,957.5842696,960.5843433999999,960.5843433999999,961.0510144,961.0181954,3.76,5.04,376,504,7.5,1.2,0.75,pic-present,1,n,0.4585398000008354,None,,,,,sub-007,46.9,46,47.9,COM3,2024-01-29_09h43.57.090,2024_RDpaindiscrimination_maintask,2023.2.3,60.00340819345127,2024-01-29 09h44.23.765859 -0500,
1,0,1,0,0,0,0,0,,,,,,,,,,,,,1021.7025143000001,,,,1013.5702431,1019.7035931,1019.7036084000001,1021.6867622,1021.6874480000006,1026.6864575,1026.6864694000005,1026.7026617000001,1038.6872441000005,0,inactive,46.9,1038.6872579,1043.4550199000005,49.99999999999989,4.688,1038.7862716,,,,,,,,,,,,,,,,,,,,,,,,,,,,,,,,,,961.0195948999999,1013.5699630999998,,,sub-007,46.9,46,47.9,COM3,2024-01-29_09h43.57.090,2024_RDpaindiscrimination_maintask,2023.2.3,60.00340819345127,2024-01-29 09h44.23.765859 -0500,
1,0,1,0,1,0,1,0,,,,,,,,,,,,,1043.4697437000004,,,,,,,,1043.4557057000002,1048.4538782999998,1048.4539087000003,1048.4698704000002,1060.4545078,1,active,46.9,1060.4545220999998,1064.4232026999998,9.000000000000025,3.9,1060.5368120000003,,,,,,,,,,,,,,,,,,,,,,,,,,,,,,,,,,,,,,sub-007,46.9,46,47.9,COM3,2024-01-29_09h43.57.090,2024_RDpaindiscrimination_maintask,2023.2.3,60.00340819345127,2024-01-29 09h44.23.765859 -0500,
1,0,1,0,2,0,2,0,,,,,,,,,,,,,1064.453595,,,,,,,,1064.4249258,1069.4370950000002,1069.4371058000006,1069.4537052000005,1081.4374103,2,inactive,46.9,1081.4374251,1085.8059637000006,41.99999999999993,4.3,,,,,,,,,,,,,,,,,,,,,,,,,,,,,,,,,,,,,,,sub-007,46.9,46,47.9,COM3,2024-01-29_09h43.57.090,2024_RDpaindiscrimination_maintask,2023.2.3,60.00340819345127,2024-01-29 09h44.23.765859 -0500,
1,0,1,0,3,0,3,0,,,,,,,,,,,,,1085.8207682000002,,,,,,,,1085.8070487000005,1090.8047294000007,1090.804740900001,1090.8209219,1102.8055205,3,active,46.9,1102.8055342999996,1107.3575777999995,1.0000000000000673,4.483,1102.887889900001,,,,,,,,,,,,,,,,,,,,,,,,,,,,,,,,,,,,,,sub-007,46.9,46,47.9,COM3,2024-01-29_09h43.57.090,2024_RDpaindiscrimination_maintask,2023.2.3,60.00340819345127,2024-01-29 09h44.23.765859 -0500,
1,0,1,0,4,0,4,0,,,,,,,,,,,,,1107.3879949000002,,,,,,,,1107.3592922999997,1112.3714942000006,1112.3715051,1112.3881213999994,1124.371807900001,0,active,46.9,1124.3718229999995,1128.3235765999998,6.999999999999997,3.883,,,,,,,,,,,,,,,,,,,,,,,,,,,,,,,,,,,,,,,sub-007,46.9,46,47.9,COM3,2024-01-29_09h43.57.090,2024_RDpaindiscrimination_maintask,2023.2.3,60.00340819345127,2024-01-29 09h44.23.765859 -0500,
1,0,1,0,5,0,5,0,,,,,,,,,,,,,1128.3385073000009,,,,,,,,1128.324139100001,1133.3225653000009,1133.3225772999995,1133.3386219000004,1145.3233982000002,1,inactive,46.9,1145.323412400001,1149.1419538999999,48.000000000000114,3.75,1145.405606100001,,,,,,,,,,,,,,,,,,,,,,,,,,,,,,,,,,,,,,sub-007,46.9,46,47.9,COM3,2024-01-29_09h43.57.090,2024_RDpaindiscrimination_maintask,2023.2.3,60.00340819345127,2024-01-29 09h44.23.765859 -0500,
1,0,1,0,6,0,6,0,,,,,,,,,,,,,1149.1723567999998,,,,,,,,1149.1436584000003,1154.15589,1154.1559008000004,1154.172488100001,1166.1561791999993,2,active,46.9,1166.1561935000009,1170.776657800001,11.0,4.551,,,,,,,,,,,,,,,,,,,,,,,,,,,,,,,,,,,,,,,sub-007,46.9,46,47.9,COM3,2024-01-29_09h43.57.090,2024_RDpaindiscrimination_maintask,2023.2.3,60.00340819345127,2024-01-29 09h44.23.765859 -0500,
1,0,1,0,7,0,7,0,,,,,,,,,,,,,1170.8062338,,,,,,,,1170.7783567000006,1175.7897603000001,1175.7897727,1175.8064028999997,1187.7900162999995,3,inactive,46.9,1187.7900315999996,1191.4776965,36.500000000000085,3.618,,,,,,,,,,,,,,,,,,,,,,,,,,,,,,,,,,,,,,,sub-007,46.9,46,47.9,COM3,2024-01-29_09h43.57.090,2024_RDpaindiscrimination_maintask,2023.2.3,60.00340819345127,2024-01-29 09h44.23.765859 -0500,
1,0,1,0,8,0,8,0,,,,,,,,,,,,,1191.5067450000006,,,,,,,,1191.4794118999998,1196.490241900001,1196.4902531000007,1196.5068666000006,1208.4905505000006,0,inactive,46.9,1208.4905646000007,1212.1107370000009,41.49999999999993,3.551,,,,,,,,,,,,,,,,,,,,,,,,,,,,,,,,,,,,,,,sub-007,46.9,46,47.9,COM3,2024-01-29_09h43.57.090,2024_RDpaindiscrimination_maintask,2023.2.3,60.00340819345127,2024-01-29 09h44.23.765859 -0500,
1,0,1,0,9,0,9,0,,,,,,,,,,,,,1212.1406057999993,,,,,,,,1212.1124565999999,1217.1240916000006,1217.1241023000002,1217.1573862000005,1229.1243952000004,1,active,46.9,1229.124409600001,1233.7769525000003,1.5000000000000002,4.584,,,,,,,,,,,,,,,,,,,,,,,,,,,,,,,,,,,,,,,sub-007,46.9,46,47.9,COM3,2024-01-29_09h43.57.090,2024_RDpaindiscrimination_maintask,2023.2.3,60.00340819345127,2024-01-29 09h44.23.765859 -0500,
1,0,1,0,10,0,10,0,,,,,,,,,,,,,1233.8078146000007,,,,,,,,1233.7786417000007,1238.7912916000005,1238.7913023,1238.8080143999996,1250.7916012000005,2,active,46.9,1250.7916151000009,1254.7112073000008,0.0,3.85,,,,,,,,,,,,,,,,,,,,,,,,,,,,,,,,,,,,,,,sub-007,46.9,46,47.9,COM3,2024-01-29_09h43.57.090,2024_RDpaindiscrimination_maintask,2023.2.3,60.00340819345127,2024-01-29 09h44.23.765859 -0500,
1,0,1,0,11,0,11,0,,,,,,,,,,,,,1254.7416133000006,,,,,,,,1254.7128725000002,1259.725140300001,1259.7251510000006,1259.7417635000002,1271.7254458000007,3,inactive,46.9,1271.7254601000004,1275.0124015000001,35.99999999999998,3.123,,,,,,,,,,,,,,,,,,,,,,,,,,,,,,,,,,,,,,,sub-007,46.9,46,47.9,COM3,2024-01-29_09h43.57.090,2024_RDpaindiscrimination_maintask,2023.2.3,60.00340819345127,2024-01-29 09h44.23.765859 -0500,
1,0,1,0,12,0,12,0,,,,,,,,,,,,,1275.0422736,,,,,,,,1275.0140837,1280.0256461999998,1280.0256571999998,1280.0422467999997,1292.025953100001,0,active,46.9,1292.0259674999998,1296.5614686000008,4.999999999999988,4.465,,,,,,,,,,,,,,,,,,,,,,,,,,,,,,,,,,,,,,,sub-007,46.9,46,47.9,COM3,2024-01-29_09h43.57.090,2024_RDpaindiscrimination_maintask,2023.2.3,60.00340819345127,2024-01-29 09h44.23.765859 -0500,
1,0,1,0,13,0,13,0,,,,,,,,,,,,,1296.5760073000001,,,,,,,,1296.5620419999996,1301.5600742999995,1301.5600854999993,1301.5761143,1313.5607605000005,1,inactive,46.9,1313.5607743,1316.6466488000005,48.4999999999999,3.016,1313.6430934,,,,,,,,,,,,,,,,,,,,,,,,,,,,,,,,,,,,,,sub-007,46.9,46,47.9,COM3,2024-01-29_09h43.57.090,2024_RDpaindiscrimination_maintask,2023.2.3,60.00340819345127,2024-01-29 09h44.23.765859 -0500,
1,0,1,0,14,0,14,0,,,,,,,,,,,,,1316.6766196999997,,,,,,,,1316.6483733999994,1321.6600092999997,1321.6600202000009,1321.6766081999995,1333.6603200000009,2,inactive,46.9,1333.660334600001,1338.5798763000003,41.00000000000014,4.85,,,,,,,,,,,,,,,,,,,,,,,,,,,,,,,,,,,,,,,sub-007,46.9,46,47.9,COM3,2024-01-29_09h43.57.090,2024_RDpaindiscrimination_maintask,2023.2.3,60.00340819345127,2024-01-29 09h44.23.765859 -0500,
1,0,1,0,15,0,15,0,,,,,,,,,,,,,1338.5937109000006,,,,,,,,1338.5804592000004,1343.577781,1343.5777927,1343.5938179000004,1355.5784612000007,3,active,46.9,1355.5784755000004,1360.2979391000008,1.0000000000002005,4.65,1355.6608061999996,,,,,,,,,,,,,,,,,,,,,,,,,,,,,,,,,,,,,,sub-007,46.9,46,47.9,COM3,2024-01-29_09h43.57.090,2024_RDpaindiscrimination_maintask,2023.2.3,60.00340819345127,2024-01-29 09h44.23.765859 -0500,
1,0,1,0,,,,,0,0,0,0,0,0,0,0,,,,,1379.1280329,,,,,,1377.5463827000003,1379.1123793999996,,,,,,0,active,46.9,1396.1128241000006,1403.2636789999997,27.00000000000001,7.081,,1360.2990241999996,1360.3110551999998,1377.5457002000003,1379.1129834000003,1384.112048500001,1384.1120615,1384.1281612000002,1396.1951270000009,1396.1128112999995,,,,,,,,,,,,,,,,,,,,,,,,,,,,,sub-007,46.9,46,47.9,COM3,2024-01-29_09h43.57.090,2024_RDpaindiscrimination_maintask,2023.2.3,60.00340819345127,2024-01-29 09h44.23.765859 -0500,
1,0,1,0,,,,,0,0,0,0,1,0,1,0,,,,,1403.2787764000004,,,,,,,,,,,,,1,inactive,46.9,1420.2632979999998,1423.932356700001,47.50000000000008,3.6,,,,,1403.2647140000008,1408.2626999000004,1408.2627119999997,1408.278784600001,1420.3457275,1420.2632861000002,,,,,,,,,,,,,,,,,,,,,,,,,,,,,sub-007,46.9,46,47.9,COM3,2024-01-29_09h43.57.090,2024_RDpaindiscrimination_maintask,2023.2.3,60.00340819345127,2024-01-29 09h44.23.765859 -0500,
1,0,1,0,,,,,0,0,0,0,,,,,0,0,0,0,1426.1958863,,,,,,,,,,,,,2,active,,,,,,,,,,,,,,,,1423.9332964999994,1426.1801293999997,1426.1807800000006,1431.1798512999994,1431.1798639000008,1431.196012800001,1438.6795124,1438.6795124,1441.6795868999998,1441.6795868999998,1442.1462838000007,1442.1300869000006,3.33,5.47,333,547,7.5,1.2,0.75,pic-present,1,n,0.43433340000046883,None,,,,,sub-007,46.9,46,47.9,COM3,2024-01-29_09h43.57.090,2024_RDpaindiscrimination_maintask,2023.2.3,60.00340819345127,2024-01-29 09h44.23.765859 -0500,
1,0,1,0,,,,,0,0,0,0,,,,,1,0,1,0,1442.1462838000007,,,,,,,,,,,,,3,inactive,,,,,,,,,,,,,,,,,,1442.1317942000005,1447.1303750999996,1447.1303891000007,1447.1464773999996,1454.6465960000005,1454.6465960000005,1457.646655300001,1457.646655300001,1458.0966810999998,1458.0806183999994,3.48,5.32,348,532,7.5,1.2,0.75,pic-absent,0,m,0.4597290999990946,None,,,,,sub-007,46.9,46,47.9,COM3,2024-01-29_09h43.57.090,2024_RDpaindiscrimination_maintask,2023.2.3,60.00340819345127,2024-01-29 09h44.23.765859 -0500,
1,0,1,0,,,,,0,0,0,0,,,,,2,0,2,0,1458.0966810999998,,,,,,,,,,,,,0,inactive,,,,,,,,,,,,,,,,,,1458.0821601000007,1463.0807181,1463.0807320000004,1463.0967882000004,1470.596991100001,1470.596991100001,1473.5970357999995,1473.5970357999995,1474.0470776000002,1474.0309006000007,3.91,4.89,391,488,7.5,1.2,0.75,pic-present,1,n,0.7808022999997775,None,,,,,sub-007,46.9,46,47.9,COM3,2024-01-29_09h43.57.090,2024_RDpaindiscrimination_maintask,2023.2.3,60.00340819345127,2024-01-29 09h44.23.765859 -0500,
1,0,1,0,,,,,0,0,0,0,,,,,3,0,3,0,1474.0470776000002,,,,,,,,,,,,,1,active,,,,,,,,,,,,,,,,,,1474.0324423000002,1479.0311082000007,1479.0311213000004,1479.0472054000002,1486.5473887000007,1486.5473887000007,1489.5474455000003,1489.5474455000003,1489.9974545999994,1489.9813814999998,3.93,4.87,393,487,7.5,1.2,0.75,pic-absent,0,m,0.6383779000007053,None,,,,,sub-007,46.9,46,47.9,COM3,2024-01-29_09h43.57.090,2024_RDpaindiscrimination_maintask,2023.2.3,60.00340819345127,2024-01-29 09h44.23.765859 -0500,
1,0,1,0,,,,,1,0,1,0,0,0,0,0,,,,,1493.1642217000008,,,,,,1489.9829577,1493.1484559,,,,,,2,inactive,46.9,1510.1489474999998,1515.1839555999995,35.00000000000013,4.966,,,,,1493.1490739,1498.1482039000002,1498.1482161999993,1498.1643237999997,1510.2313137,1510.1489359999996,,,,,,,,,,,,,,,,,,,,,,,,,,,,,sub-007,46.9,46,47.9,COM3,2024-01-29_09h43.57.090,2024_RDpaindiscrimination_maintask,2023.2.3,60.00340819345127,2024-01-29 09h44.23.765859 -0500,
1,0,1,0,,,,,1,0,1,0,1,0,1,0,,,,,1515.1982176000001,,,,,,,,,,,,,3,active,46.9,1532.1829791,1539.8362601999997,19.000000000000213,7.585,,,,,1515.1849567000008,1520.1820561000004,1520.1820681999998,1520.1983318000002,1532.2651925999999,1532.1829670999996,,,,,,,,,,,,,,,,,,,,,,,,,,,,,sub-007,46.9,46,47.9,COM3,2024-01-29_09h43.57.090,2024_RDpaindiscrimination_maintask,2023.2.3,60.00340819345127,2024-01-29 09h44.23.765859 -0500,
1,0,1,0,,,,,1,0,1,0,,,,,0,0,0,0,1543.2821292000008,,,,,,,,,,,,,0,inactive,,,,,,,,,,,,,,,,1539.8371855000005,1543.266388600001,1543.2670471000001,1548.2661086999997,1548.2661215999997,1548.2822383000002,1555.7657565000009,1555.7657565000009,1558.7658346000007,1558.7658346000007,1559.232525200001,1559.216336200001,3.9,4.9,390,490,7.5,1.2,0.75,pic-present,1,n,0.3764479000001302,None,,,,,sub-007,46.9,46,47.9,COM3,2024-01-29_09h43.57.090,2024_RDpaindiscrimination_maintask,2023.2.3,60.00340819345127,2024-01-29 09h44.23.765859 -0500,
1,0,1,0,,,,,1,0,1,0,,,,,1,0,1,0,1559.232525200001,,,,,,,,,,,,,1,active,,,,,,,,,,,,,,,,,,1559.2180341000003,1564.2165375000004,1564.216550000001,1564.2326551999995,1571.732818800001,1571.732818800001,1574.732890700001,1574.732890700001,1575.1829238999999,1575.1667099000006,3.81,4.99,381,499,7.5,1.2,0.75,pic-absent,0,m,0.5411278999999922,None,,,,,sub-007,46.9,46,47.9,COM3,2024-01-29_09h43.57.090,2024_RDpaindiscrimination_maintask,2023.2.3,60.00340819345127,2024-01-29 09h44.23.765859 -0500,
1,0,1,0,,,,,1,0,1,0,,,,,2,0,2,0,1575.1829238999999,,,,,,,,,,,,,2,active,,,,,,,,,,,,,,,,,,1575.1682466000002,1580.1670453000006,1580.1670582999996,1580.1830308999997,1587.6832293999996,1587.6832293999996,1590.6832900000009,1590.6832900000009,1591.1333171000006,1591.1171388000002,3.81,4.99,381,499,7.5,1.2,0.75,pic-present,1,n,0.44317339999906835,None,,,,,sub-007,46.9,46,47.9,COM3,2024-01-29_09h43.57.090,2024_RDpaindiscrimination_maintask,2023.2.3,60.00340819345127,2024-01-29 09h44.23.765859 -0500,
1,0,1,0,,,,,1,0,1,0,,,,,3,0,3,0,1591.1333171000006,,,,,,,,,,,,,3,inactive,,,,,,,,,,,,,,,,,,1591.118675900001,1596.117342900001,1596.1173562999993,1596.1334430999996,1603.6336336000004,1603.6336336000004,1606.6336677,1606.6336677,1607.0837155000008,1607.0675260999997,3.88,4.92,388,492,7.5,1.2,0.75,pic-absent,0,m,0.531915300000037,None,,,,,sub-007,46.9,46,47.9,COM3,2024-01-29_09h43.57.090,2024_RDpaindiscrimination_maintask,2023.2.3,60.00340819345127,2024-01-29 09h44.23.765859 -0500,
1,0,1,0,,,,,2,0,2,0,0,0,0,0,,,,,1609.4337747000009,,,,,,1607.0690969000007,1609.418177200001,,,,,,0,inactive,46.9,1626.4184975000007,1630.3027292000006,43.0000000000001,3.815,,,,,1609.4187987999994,1614.4176829999997,1614.4176951999998,1614.4338764999993,1626.5008500000004,1626.4184860000005,,,,,,,,,,,,,,,,,,,,,,,,,,,,,sub-007,46.9,46,47.9,COM3,2024-01-29_09h43.57.090,2024_RDpaindiscrimination_maintask,2023.2.3,60.00340819345127,2024-01-29 09h44.23.765859 -0500,
1,0,1,0,,,,,2,0,2,0,1,0,1,0,,,,,1630.3176280000007,,,,,,,,,,,,,1,active,46.9,1647.3023964999993,1652.321049100001,38.50000000000015,4.95,,,,,1630.3032801999998,1635.3015890000006,1635.3016012999997,1635.3177477999998,1647.3847232000007,1647.3023845999996,,,,,,,,,,,,,,,,,,,,,,,,,,,,,sub-007,46.9,46,47.9,COM3,2024-01-29_09h43.57.090,2024_RDpaindiscrimination_maintask,2023.2.3,60.00340819345127,2024-01-29 09h44.23.765859 -0500,
1,0,1,0,,,,,2,0,2,0,,,,,0,0,0,0,1655.3015782000002,,,,,,,,,,,,,2,active,,,,,,,,,,,,,,,,1652.3217177000006,1655.2859678999994,1655.2866297,1660.2855371000005,1660.2855493999996,1660.3183986000004,1667.7852222000001,1667.7852222000001,1670.7852681000004,1670.7852681000004,1671.2686771000008,1671.2525466999996,3.92,4.88,392,488,7.5,1.2,0.75,pic-absent,0,m,0.6528698000001896,None,,,,,sub-007,46.9,46,47.9,COM3,2024-01-29_09h43.57.090,2024_RDpaindiscrimination_maintask,2023.2.3,60.00340819345127,2024-01-29 09h44.23.765859 -0500,
1,0,1,0,,,,,2,0,2,0,,,,,1,0,1,0,1671.2686771000008,,,,,,,,,,,,,3,active,,,,,,,,,,,,,,,,,,1671.2542508999995,1676.2526355999998,1676.252648900001,1676.2687669000006,1683.7689525999995,1683.7689525999995,1686.7690070000008,1686.7690070000008,1687.219035600001,1687.2028487999996,4.21,4.59,421,459,7.5,1.2,0.75,pic-present,1,n,0.524967999999717,None,,,,,sub-007,46.9,46,47.9,COM3,2024-01-29_09h43.57.090,2024_RDpaindiscrimination_maintask,2023.2.3,60.00340819345127,2024-01-29 09h44.23.765859 -0500,
1,0,1,0,,,,,2,0,2,0,,,,,2,0,2,0,1687.219035600001,,,,,,,,,,,,,0,inactive,,,,,,,,,,,,,,,,,,1687.2043943999997,1692.203049400001,1692.2030625000007,1692.2191351000001,1699.7193487999994,1699.7193487999994,1702.7194228999997,1702.7194228999997,1703.169435400001,1703.1532912000002,3.37,5.43,337,543,7.5,1.2,0.75,pic-absent,0,m,1.0347776999988127,None,,,,,sub-007,46.9,46,47.9,COM3,2024-01-29_09h43.57.090,2024_RDpaindiscrimination_maintask,2023.2.3,60.00340819345127,2024-01-29 09h44.23.765859 -0500,
1,0,1,0,,,,,2,0,2,0,,,,,3,0,3,0,1703.169435400001,,,,,,,,,,,,,1,active,,,,,,,,,,,,,,,,,,1703.1548507999996,1708.1533973999994,1708.1534114000006,1708.1695698000003,1715.6697108999997,1715.6697108999997,1718.669797800001,1718.669797800001,1719.1198279,1719.1036530000001,3.51,5.29,351,529,7.5,1.2,0.75,pic-present,1,n,0.5603059999994002,None,,,,,sub-007,46.9,46,47.9,COM3,2024-01-29_09h43.57.090,2024_RDpaindiscrimination_maintask,2023.2.3,60.00340819345127,2024-01-29 09h44.23.765859 -0500,
1,0,1,0,,,,,3,0,3,0,0,0,0,0,,,,,1721.3532164000007,,,,,,1719.1052323000004,1721.3374332000003,,,,,,2,active,46.9,1738.3379769000003,1742.9068817999996,28.49999999999998,4.5,,,,,1721.3380679000002,1726.3371518000004,1726.3371640999994,1726.3533232999998,1738.4202917000002,1738.337965300001,,,,,,,,,,,,,,,,,,,,,,,,,,,,,sub-007,46.9,46,47.9,COM3,2024-01-29_09h43.57.090,2024_RDpaindiscrimination_maintask,2023.2.3,60.00340819345127,2024-01-29 09h44.23.765859 -0500,
1,0,1,0,,,,,3,0,3,0,1,0,1,0,,,,,1742.9370921999998,,,,,,,,,,,,,3,inactive,46.9,1759.9208928000007,1763.9245157000005,39.999999999999964,3.935,,,,,1742.9084397999995,1747.9205982000003,1747.9206097999995,1747.9372108999996,,1759.9208799999997,,,,,,,,,,,,,,,,,,,,,,,,,,,,,sub-007,46.9,46,47.9,COM3,2024-01-29_09h43.57.090,2024_RDpaindiscrimination_maintask,2023.2.3,60.00340819345127,2024-01-29 09h44.23.765859 -0500,
1,0,1,0,,,,,3,0,3,0,,,,,0,0,0,0,1766.6543378999995,,,,,,,,,,,,,0,inactive,,,,,,,,,,,,,,,,1763.925436200001,1766.6386702,1766.6393284999995,1771.6383888,1771.6384011999999,1771.6544704999997,1779.1379443999995,1779.1379443999995,1782.1380396999994,1782.1380396999994,1782.6047177,1782.5885710000002,3.34,5.46,334,546,7.5,1.2,0.75,pic-absent,0,m,0.48023379999904137,None,,,,,sub-007,46.9,46,47.9,COM3,2024-01-29_09h43.57.090,2024_RDpaindiscrimination_maintask,2023.2.3,60.00340819345127,2024-01-29 09h44.23.765859 -0500,
1,0,1,0,,,,,3,0,3,0,,,,,1,0,1,0,1782.6047177,,,,,,,,,,,,,1,inactive,,,,,,,,,,,,,,,,,,1782.5902645000006,1787.5886926000003,1787.5887058999997,1787.6048637000004,1795.1050281000007,1795.1050281000007,1798.1051203000006,1798.1051203000006,1798.555128,1798.538923,3.94,4.86,394,486,7.5,1.2,0.75,pic-present,1,n,0.4089553999983764,None,,,,,sub-007,46.9,46,47.9,COM3,2024-01-29_09h43.57.090,2024_RDpaindiscrimination_maintask,2023.2.3,60.00340819345127,2024-01-29 09h44.23.765859 -0500,
1,0,1,0,,,,,3,0,3,0,,,,,2,0,2,0,1798.555128,,,,,,,,,,,,,2,active,,,,,,,,,,,,,,,,,,1798.5404614,1803.5390969,1803.5391101999994,1803.555257600001,1811.0554040999996,1811.0554040999996,1814.05552,1814.05552,1814.5055334000008,1814.4893482000007,3.47,5.33,347,533,7.5,1.2,0.75,pic-absent,0,m,0.3584095999995043,None,,,,,sub-007,46.9,46,47.9,COM3,2024-01-29_09h43.57.090,2024_RDpaindiscrimination_maintask,2023.2.3,60.00340819345127,2024-01-29 09h44.23.765859 -0500,
1,0,1,0,,,,,3,0,3,0,,,,,3,0,3,0,1814.5055334000008,,,,,,,,,,,,,3,inactive,,,,,,,,,,,,,,,,,,1814.4908864000008,1819.4894691000009,1819.4894820999998,1819.5056559000004,1827.0058191999997,1827.0058191999997,1830.0059137000007,1830.0059137000007,1830.4559066000002,1830.4398641999996,3.86,4.94,386,494,7.5,1.2,0.75,pic-present,1,n,0.5884007000004203,None,,,,,sub-007,46.9,46,47.9,COM3,2024-01-29_09h43.57.090,2024_RDpaindiscrimination_maintask,2023.2.3,60.00340819345127,2024-01-29 09h44.23.765859 -0500,
,,,,,,,,,,,,,,,,,,,,,,,,,,,,,,,,,,,,,,,,,,,,,,,,,,,,,,,,,,,,,,,,,,,,,,,,,,1830.4412687999993,1852.7743984999997,1852.7744352000009,1862.7739366000005,,,,,,,,,,,
