trials.thisRepN,trials.thisTrialN,trials.thisN,trials.thisIndex,loop_test.thisRepN,loop_test.thisTrialN,loop_test.thisN,loop_test.thisIndex,loop_eval_discri.thisRepN,loop_eval_discri.thisTrialN,loop_eval_discri.thisN,loop_eval_discri.thisIndex,loop_eval.thisRepN,loop_eval.thisTrialN,loop_eval.thisN,loop_eval.thisIndex,loop_discri.thisRepN,loop_discri.thisTrialN,loop_discri.thisN,loop_discri.thisIndex,thisRow.t,notes,Set_up.started,Set_up.stopped,electrode_check.started,electrode_check.stopped,instructions_eval.started,instructions_eval.stopped,pause_5_test.started,pause_5_test.stopped,Phase_Test.started,thermode_locali.started,Phase_Test.stopped,loca_thermode,condition,temp_trial_sent,eval_douleur.started,eval_douleur.stopped,ratingScale.response,ratingScale.rt,thermode_locali.stopped,Fin_test.started,text.started,Fin_test.stopped,pause_5_EVA.started,pause_5_EVA.stopped,tâche_EVA.started,thermode_locali_EVA.started,thermode_locali_EVA.stopped,tâche_EVA.stopped,instructions_discrim.started,instructions_discrim.stopped,pause_5_pic.started,pause_5_pic.stopped,tâche_PIC.started,thermode_locali_pic.started,percu_or.started,responser.started,thermode_locali_pic.stopped,percu_or.stopped,responser.stopped,tâche_PIC.stopped,dur_plateau1,dur_plateau2,dur_plateau1_sent,dur_plateau2_sent,start_plateau_2_resp,dur_pic,dur_rise,pic_presence,pic_response,discrimin_resp.keys,discrimin_resp.rt,discrimin_resp.duration,break_entre_bloc.started,break_entre_bloc.stopped,merci.started,merci.stopped,participant,temp_flat,temp_active,temp_pic_set,com_thermode,date,expName,psychopyVersion,frameRate,expStart,
0,0,0,0,0,0,0,0,,,,,,,,,,,,,110.26410049991682,,0.012749700341373682,108.56434080004692,108.56469190027565,109.71446719998494,109.71447610016912,110.23108020005748,110.23136020032689,115.24758370034397,115.24759000027552,115.2642059000209,127.24774480005726,0,active,44.4,127.24796930002049,131.23241710010916,6.9999999999999885,3.961,,,,,,,,,,,,,,,,,,,,,,,,,,,,,,,,,,,,,,,sub-035,46.3,44.4,47.2,COM3,2024-05-03_14h03.03.566,2024_RDpaindiscrimination_maintask,2023.2.3,60.03204525192162,2024-05-03 14h03.46.030208 -0400,
0,0,0,0,1,0,1,0,,,,,,,,,,,,,131.24776570033282,,,,,,,,131.23335009999573,136.23133530002087,136.23134290007874,136.24775149999186,148.2318333000876,1,active,44.4,148.23197779990733,152.7004232001491,16.000000000000103,4.45,148.26467650011182,,,,,,,,,,,,,,,,,,,,,,,,,,,,,,,,,,,,,,sub-035,46.3,44.4,47.2,COM3,2024-05-03_14h03.03.566,2024_RDpaindiscrimination_maintask,2023.2.3,60.03204525192162,2024-05-03 14h03.46.030208 -0400,
0,0,0,0,2,0,2,0,,,,,,,,,,,,,152.71473560016602,,,,,,,,152.70124430023134,157.6982998000458,157.6983063002117,157.71480070007965,169.6987497000955,2,inactive,46.3,169.69889390002936,175.16744020022452,30.000000000000036,5.449,169.73161110002548,,,,,,,,,,,,,,,,,,,,,,,,,,,,,,,,,,,,,,sub-035,46.3,44.4,47.2,COM3,2024-05-03_14h03.03.566,2024_RDpaindiscrimination_maintask,2023.2.3,60.03204525192162,2024-05-03 14h03.46.030208 -0400,
0,0,0,0,3,0,3,0,,,,,,,,,,,,,175.18164640013129,,,,,,,,175.1682213000022,180.16521750018,180.16522430023178,180.18167320033535,192.16566850012168,3,active,44.4,192.16581690032035,195.91692019999027,22.99999999999999,3.732,192.19853539997712,,,,,,,,,,,,,,,,,,,,,,,,,,,,,,,,,,,,,,sub-035,46.3,44.4,47.2,COM3,2024-05-03_14h03.03.566,2024_RDpaindiscrimination_maintask,2023.2.3,60.03204525192162,2024-05-03 14h03.46.030208 -0400,
0,0,0,0,4,0,4,0,,,,,,,,,,,,,195.93196320021525,,,,,,,,195.9176910002716,200.91546600032598,200.91547250002623,200.93197640031576,212.91590660018846,0,inactive,46.3,212.91605520015582,216.38429130008444,71.9999999999999,3.449,212.94878940004855,,,,,,,,,,,,,,,,,,,,,,,,,,,,,,,,,,,,,,sub-035,46.3,44.4,47.2,COM3,2024-05-03_14h03.03.566,2024_RDpaindiscrimination_maintask,2023.2.3,60.03204525192162,2024-05-03 14h03.46.030208 -0400,
0,0,0,0,5,0,5,0,,,,,,,,,,,,,216.39880610024557,,,,,,,,216.38512230012566,221.38239330006763,221.38240040000528,221.39886790001765,233.38288700021803,1,active,44.4,233.38305460009724,236.4675146001391,27.500000000000043,3.065,233.41575339995325,,,,,,,,,,,,,,,,,,,,,,,,,,,,,,,,,,,,,,sub-035,46.3,44.4,47.2,COM3,2024-05-03_14h03.03.566,2024_RDpaindiscrimination_maintask,2023.2.3,60.03204525192162,2024-05-03 14h03.46.030208 -0400,
0,0,0,0,6,0,6,0,,,,,,,,,,,,,236.48241560021415,,,,,,,,236.4683229001239,241.46599420020357,241.46600120002404,241.48249040031806,253.46642580023035,2,inactive,46.3,253.46658110013232,256.03558700019494,59.999999999999964,2.55,253.49930320028216,,,,,,,,,,,,,,,,,,,,,,,,,,,,,,,,,,,,,,sub-035,46.3,44.4,47.2,COM3,2024-05-03_14h03.03.566,2024_RDpaindiscrimination_maintask,2023.2.3,60.03204525192162,2024-05-03 14h03.46.030208 -0400,
0,0,0,0,7,0,7,0,,,,,,,,,,,,,256.04927690001205,,,,,,,,256.03623219998553,261.0328979003243,261.0329046002589,261.04939680034295,273.03336110012606,3,inactive,46.3,273.0335038001649,275.6011510002427,63.49999999999995,2.548,273.06621500011533,,,,,,,,,,,,,,,,,,,,,,,,,,,,,,,,,,,,,,sub-035,46.3,44.4,47.2,COM3,2024-05-03_14h03.03.566,2024_RDpaindiscrimination_maintask,2023.2.3,60.03204525192162,2024-05-03 14h03.46.030208 -0400,
0,0,0,0,8,0,8,0,,,,,,,,,,,,,275.6162725002505,,,,,,,,275.60192230017856,280.5998074002564,280.5998146003112,280.6163532999344,292.6002314002253,0,active,44.4,292.6003724001348,297.35220400011167,22.50000000000007,4.733,292.63307530013844,,,,,,,,,,,,,,,,,,,,,,,,,,,,,,,,,,,,,,sub-035,46.3,44.4,47.2,COM3,2024-05-03_14h03.03.566,2024_RDpaindiscrimination_maintask,2023.2.3,60.03204525192162,2024-05-03 14h03.46.030208 -0400,
0,0,0,0,9,0,9,0,,,,,,,,,,,,,297.3664875002578,,,,,,,,297.3529846002348,302.3500500000082,302.3500570002943,302.3665415002033,314.3505824999884,1,inactive,46.3,314.3507239003666,316.45264320028946,67.49999999999994,2.083,314.38344220025465,,,,,,,,,,,,,,,,,,,,,,,,,,,,,,,,,,,,,,sub-035,46.3,44.4,47.2,COM3,2024-05-03_14h03.03.566,2024_RDpaindiscrimination_maintask,2023.2.3,60.03204525192162,2024-05-03 14h03.46.030208 -0400,
0,0,0,0,10,0,10,0,,,,,,,,,,,,,316.4667815002613,,,,,,,,316.45339060015976,321.4503742000088,321.4503852999769,321.4668334000744,333.4508324000053,2,active,44.4,333.45097430003807,337.8362199999392,30.0,4.366,333.4836802999489,,,,,,,,,,,,,,,,,,,,,,,,,,,,,,,,,,,,,,sub-035,46.3,44.4,47.2,COM3,2024-05-03_14h03.03.566,2024_RDpaindiscrimination_maintask,2023.2.3,60.03204525192162,2024-05-03 14h03.46.030208 -0400,
0,0,0,0,11,0,11,0,,,,,,,,,,,,,337.8504000999965,,,,,,,,337.83697700034827,342.8339301003143,342.83393750013784,342.8504703002982,354.83440880011767,3,active,44.4,354.8345621000044,358.0533207003027,22.000000000000064,3.2,354.8672481002286,,,,,,,,,,,,,,,,,,,,,,,,,,,,,,,,,,,,,,sub-035,46.3,44.4,47.2,COM3,2024-05-03_14h03.03.566,2024_RDpaindiscrimination_maintask,2023.2.3,60.03204525192162,2024-05-03 14h03.46.030208 -0400,
0,0,0,0,12,0,12,0,,,,,,,,,,,,,358.06721780030057,,,,,,,,358.0541119999252,363.05097600026056,363.050982600078,363.06728939991444,375.0512161003426,0,inactive,46.3,375.05136170005426,377.2369981999509,70.5,2.167,375.0840874002315,,,,,,,,,,,,,,,,,,,,,,,,,,,,,,,,,,,,,,sub-035,46.3,44.4,47.2,COM3,2024-05-03_14h03.03.566,2024_RDpaindiscrimination_maintask,2023.2.3,60.03204525192162,2024-05-03 14h03.46.030208 -0400,
0,0,0,0,13,0,13,0,,,,,,,,,,,,,377.2508563003503,,,,,,,,377.2377523002215,382.2343588001095,382.23436499992386,382.2509373999201,394.23494410002604,1,inactive,46.3,394.2350858002901,397.5191517001949,64.49999999999991,3.265,394.2677942002192,,,,,,,,,,,,,,,,,,,,,,,,,,,,,,,,,,,,,,sub-035,46.3,44.4,47.2,COM3,2024-05-03_14h03.03.566,2024_RDpaindiscrimination_maintask,2023.2.3,60.03204525192162,2024-05-03 14h03.46.030208 -0400,
0,0,0,0,14,0,14,0,,,,,,,,,,,,,397.5343855000101,,,,,,,,397.5199031000957,402.51795350015163,402.5179598000832,402.53450740035623,414.51843459997326,2,active,44.4,414.5185774001293,417.8199624000117,27.000000000000153,3.282,414.55126610025764,,,,,,,,,,,,,,,,,,,,,,,,,,,,,,,,,,,,,,sub-035,46.3,44.4,47.2,COM3,2024-05-03_14h03.03.566,2024_RDpaindiscrimination_maintask,2023.2.3,60.03204525192162,2024-05-03 14h03.46.030208 -0400,
0,0,0,0,15,0,15,0,,,,,,,,,,,,,417.83472550008446,,,,,,,,417.8207149999216,422.8183158999309,422.81832340033725,422.8347591999918,434.8186961999163,3,inactive,46.3,434.81884490000084,437.58789069997147,57.999999999999936,2.75,434.8515046001412,,,,,,,,,,,,,,,,,,,,,,,,,,,,,,,,,,,,,,sub-035,46.3,44.4,47.2,COM3,2024-05-03_14h03.03.566,2024_RDpaindiscrimination_maintask,2023.2.3,60.03204525192162,2024-05-03 14h03.46.030208 -0400,
0,0,0,0,,,,,0,0,0,0,0,0,0,0,,,,,466.3019966003485,,,,,,464.7192561002448,466.2855949001387,,,,,,0,active,46.3,483.2860292000696,486.3204860999249,64.00000000000003,3.016,,437.5884834001772,437.60157039994374,464.718914499972,466.2858965001069,471.2855688002892,471.28557590022683,471.3020226000808,483.3188761002384,483.2860203003511,,,,,,,,,,,,,,,,,,,,,,,,,,,,,sub-035,46.3,44.4,47.2,COM3,2024-05-03_14h03.03.566,2024_RDpaindiscrimination_maintask,2023.2.3,60.03204525192162,2024-05-03 14h03.46.030208 -0400,
0,0,0,0,,,,,0,0,0,0,1,0,1,0,,,,,486.3355513000861,,,,,,,,,,,,,1,inactive,46.3,503.3196718003601,507.0704070003703,55.99999999999998,3.732,,,,,486.3212020001374,491.319103800226,491.3191098999232,491.33565880032256,503.3525486001745,503.319663700182,,,,,,,,,,,,,,,,,,,,,,,,,,,,,sub-035,46.3,44.4,47.2,COM3,2024-05-03_14h03.03.566,2024_RDpaindiscrimination_maintask,2023.2.3,60.03204525192162,2024-05-03 14h03.46.030208 -0400,
0,0,0,0,,,,,0,0,0,0,,,,,0,0,0,0,510.13595490017906,,,,,,,,,,,,,2,inactive,,,,,,,,,,,,,,,,507.07092930004,510.1195674003102,510.11988360015675,515.1194939003326,515.1195010999218,515.1359775001183,523.1194345001131,523.1194345001131,526.0861531002447,526.119479500223,526.119479500223,526.1029957002029,4.54,4.26,454,426,8,1.2,0.75,pic-present,1,n,0.6867466000840068,None,,,,,sub-035,46.3,44.4,47.2,COM3,2024-05-03_14h03.03.566,2024_RDpaindiscrimination_maintask,2023.2.3,60.03204525192162,2024-05-03 14h03.46.030208 -0400,
0,0,0,0,,,,,0,0,0,0,,,,,1,0,1,0,526.119479500223,,,,,,,,,,,,,3,inactive,,,,,,,,,,,,,,,,,,526.1036077002063,531.102966000326,531.1029731002636,531.119517300278,539.1029568999074,539.1029568999074,542.0696753999218,542.1030108002014,542.1030108002014,542.0864785001613,4.35,4.45,434,445,8,1.2,0.75,pic-absent,0,m,0.4594933004118502,None,,,,,sub-035,46.3,44.4,47.2,COM3,2024-05-03_14h03.03.566,2024_RDpaindiscrimination_maintask,2023.2.3,60.03204525192162,2024-05-03 14h03.46.030208 -0400,
0,0,0,0,,,,,0,0,0,0,,,,,2,0,2,0,542.1030108002014,,,,,,,,,,,,,0,active,,,,,,,,,,,,,,,,,,542.0869344002567,547.0865217000246,547.0865287003107,547.1030059000477,555.0864409003407,555.0864409003407,558.0532212001272,558.086562000215,558.086562000215,558.0699756001122,4.18,4.62,418,462,8,1.2,0.75,pic-present,1,n,0.5632870001718402,None,,,,,sub-035,46.3,44.4,47.2,COM3,2024-05-03_14h03.03.566,2024_RDpaindiscrimination_maintask,2023.2.3,60.03204525192162,2024-05-03 14h03.46.030208 -0400,
0,0,0,0,,,,,0,0,0,0,,,,,3,0,3,0,558.086562000215,,,,,,,,,,,,,1,active,,,,,,,,,,,,,,,,,,558.0704383002594,563.0700945002027,563.0701010003686,563.086592500098,571.0699744001031,571.0699744001031,574.0367195000872,574.0700186002068,574.0700186002068,574.0535308001563,4.33,4.47,433,447,8,1.2,0.75,pic-absent,0,m,0.3846598002128303,None,,,,,sub-035,46.3,44.4,47.2,COM3,2024-05-03_14h03.03.566,2024_RDpaindiscrimination_maintask,2023.2.3,60.03204525192162,2024-05-03 14h03.46.030208 -0400,
0,0,0,0,,,,,1,0,1,0,0,0,0,0,,,,,576.3534475001507,,,,,,574.0540396003053,576.3369737002067,,,,,,2,inactive,46.3,593.3374272999354,596.0394938001409,47.00000000000004,2.683,,,,,576.3372820001096,581.3370380001143,581.3370449002832,581.3534292001277,593.3702308000065,593.3374173999764,,,,,,,,,,,,,,,,,,,,,,,,,,,,,sub-035,46.3,44.4,47.2,COM3,2024-05-03_14h03.03.566,2024_RDpaindiscrimination_maintask,2023.2.3,60.03204525192162,2024-05-03 14h03.46.030208 -0400,
0,0,0,0,,,,,1,0,1,0,1,0,1,0,,,,,596.0537060000934,,,,,,,,,,,,,3,active,46.3,613.0377437002026,616.2400245000608,25.000000000000053,3.125,,,,,596.0402780002914,601.0372720002197,601.0372786000371,601.0537722003646,613.1205967999995,613.0377353001386,,,,,,,,,,,,,,,,,,,,,,,,,,,,,sub-035,46.3,44.4,47.2,COM3,2024-05-03_14h03.03.566,2024_RDpaindiscrimination_maintask,2023.2.3,60.03204525192162,2024-05-03 14h03.46.030208 -0400,
0,0,0,0,,,,,1,0,1,0,,,,,0,0,0,0,619.0372594003566,,,,,,,,,,,,,0,inactive,,,,,,,,,,,,,,,,616.2405404001474,619.0208525001071,619.0211609001271,624.0208511003293,624.0208581001498,624.0373295000754,632.0207635001279,632.0207635001279,634.9874653001316,635.0208068001084,635.0208068001084,635.0043868003413,3.49,5.31,349,531,8,1.2,0.75,pic-absent,0,m,0.5334994997829199,None,,,,,sub-035,46.3,44.4,47.2,COM3,2024-05-03_14h03.03.566,2024_RDpaindiscrimination_maintask,2023.2.3,60.03204525192162,2024-05-03 14h03.46.030208 -0400,
0,0,0,0,,,,,1,0,1,0,,,,,1,0,1,0,635.0208068001084,,,,,,,,,,,,,1,active,,,,,,,,,,,,,,,,,,635.0049296002835,640.0044041001238,640.0044112000614,640.0208748001605,648.0043967003003,648.0043967003003,650.971082100179,651.0044199000113,651.0044199000113,650.9879213003442,3.97,4.83,397,483,8,1.2,0.75,pic-present,1,n,0.3539052000269294,None,,,,,sub-035,46.3,44.4,47.2,COM3,2024-05-03_14h03.03.566,2024_RDpaindiscrimination_maintask,2023.2.3,60.03204525192162,2024-05-03 14h03.46.030208 -0400,
0,0,0,0,,,,,1,0,1,0,,,,,2,0,2,0,651.0044199000113,,,,,,,,,,,,,2,inactive,,,,,,,,,,,,,,,,,,650.9883974003606,655.9879570999183,655.9879648000933,656.0044651003554,663.9879086003639,663.9879086003639,666.954553199932,666.9879657002166,666.9879657002166,666.9714758000337,3.37,5.43,337,543,8,1.2,0.75,pic-absent,0,m,0.4101634002290666,None,,,,,sub-035,46.3,44.4,47.2,COM3,2024-05-03_14h03.03.566,2024_RDpaindiscrimination_maintask,2023.2.3,60.03204525192162,2024-05-03 14h03.46.030208 -0400,
0,0,0,0,,,,,1,0,1,0,,,,,3,0,3,0,666.9879657002166,,,,,,,,,,,,,3,inactive,,,,,,,,,,,,,,,,,,666.9719299999997,671.9715140000917,671.9715213999152,671.9880197001621,679.9714544001035,679.9714544001035,682.9381053000689,682.9713890999556,682.9713890999556,682.9549015001394,3.36,5.44,336,544,8,1.2,0.75,pic-present,0,m,0.5627893996424973,None,,,,,sub-035,46.3,44.4,47.2,COM3,2024-05-03_14h03.03.566,2024_RDpaindiscrimination_maintask,2023.2.3,60.03204525192162,2024-05-03 14h03.46.030208 -0400,
0,0,0,0,,,,,2,0,2,0,0,0,0,0,,,,,685.6048651002347,,,,,,682.955379600171,685.5884269000962,,,,,,0,active,46.3,702.5888352002949,705.2576357000507,56.99999999999994,2.65,,,,,685.5887798001058,690.5883889002725,690.5883957003243,690.6049196003005,702.6216855999082,702.588826500345,,,,,,,,,,,,,,,,,,,,,,,,,,,,,sub-035,46.3,44.4,47.2,COM3,2024-05-03_14h03.03.566,2024_RDpaindiscrimination_maintask,2023.2.3,60.03204525192162,2024-05-03 14h03.46.030208 -0400,
0,0,0,0,,,,,2,0,2,0,1,0,1,0,,,,,705.2717515002005,,,,,,,,,,,,,1,inactive,46.3,722.2557006003335,724.8750057001598,61.499999999999886,2.601,,,,,705.2579342001118,710.2553344001062,710.2553407000378,710.2717876001261,722.2887014001608,722.2556924000382,,,,,,,,,,,,,,,,,,,,,,,,,,,,,sub-035,46.3,44.4,47.2,COM3,2024-05-03_14h03.03.566,2024_RDpaindiscrimination_maintask,2023.2.3,60.03204525192162,2024-05-03 14h03.46.030208 -0400,
0,0,0,0,,,,,2,0,2,0,,,,,0,0,0,0,727.772047100123,,,,,,,,,,,,,2,active,,,,,,,,,,,,,,,,724.8754452001303,727.7558480999433,727.7561590000987,732.7556432001293,732.7556501999497,732.7721004001796,740.7555807000026,740.7555807000026,743.722288900055,743.7556280000135,743.7556280000135,743.739144900348,3.52,5.28,352,528,8,1.2,0.75,pic-absent,0,m,0.38283019978553057,None,,,,,sub-035,46.3,44.4,47.2,COM3,2024-05-03_14h03.03.566,2024_RDpaindiscrimination_maintask,2023.2.3,60.03204525192162,2024-05-03 14h03.46.030208 -0400,
0,0,0,0,,,,,2,0,2,0,,,,,1,0,1,0,743.7556280000135,,,,,,,,,,,,,3,inactive,,,,,,,,,,,,,,,,,,743.7397135002539,748.7391143999994,748.7391216000542,748.7556655001827,756.7391315000132,756.7391315000132,759.7058852002956,759.7391727999784,759.7391727999784,759.7226819000207,3.75,5.05,375,505,8,1.2,0.75,pic-present,1,n,0.438775600399822,None,,,,,sub-035,46.3,44.4,47.2,COM3,2024-05-03_14h03.03.566,2024_RDpaindiscrimination_maintask,2023.2.3,60.03204525192162,2024-05-03 14h03.46.030208 -0400,
0,0,0,0,,,,,2,0,2,0,,,,,2,0,2,0,759.7391727999784,,,,,,,,,,,,,0,active,,,,,,,,,,,,,,,,,,759.7231415002607,764.7227354003116,764.7227425002493,764.7391535001807,772.7227135002613,772.7227135002613,775.6893744999543,775.7227125000209,775.7227125000209,775.7061757999472,4.7,4.1,470,409,8,1.2,0.75,pic-absent,0,m,0.30778890009969473,None,,,,,sub-035,46.3,44.4,47.2,COM3,2024-05-03_14h03.03.566,2024_RDpaindiscrimination_maintask,2023.2.3,60.03204525192162,2024-05-03 14h03.46.030208 -0400,
0,0,0,0,,,,,2,0,2,0,,,,,3,0,3,0,775.7227125000209,,,,,,,,,,,,,1,inactive,,,,,,,,,,,,,,,,,,775.706636799965,780.7062869002111,780.7062941999175,780.722779000178,788.7061336003244,788.7061336003244,791.6728827999905,791.7062182999216,791.7062182999216,791.6897702999413,3.81,4.99,381,499,8,1.2,0.75,pic-absent,0,m,0.6005279002711177,None,,,,,sub-035,46.3,44.4,47.2,COM3,2024-05-03_14h03.03.566,2024_RDpaindiscrimination_maintask,2023.2.3,60.03204525192162,2024-05-03 14h03.46.030208 -0400,
0,0,0,0,,,,,3,0,3,0,0,0,0,0,,,,,794.6729270000942,,,,,,791.690256900154,794.656555000227,,,,,,2,inactive,46.3,811.6568848001771,814.4909793003462,69.9999999999999,2.815,,,,,794.6568611999974,799.6565486001782,799.6565555003472,799.6729442002252,811.6897971001454,811.6568761002272,,,,,,,,,,,,,,,,,,,,,,,,,,,,,sub-035,46.3,44.4,47.2,COM3,2024-05-03_14h03.03.566,2024_RDpaindiscrimination_maintask,2023.2.3,60.03204525192162,2024-05-03 14h03.46.030208 -0400,
0,0,0,0,,,,,3,0,3,0,1,0,1,0,,,,,814.506480100099,,,,,,,,,,,,,3,active,46.3,831.4904411002062,833.9428658001125,61.49999999999993,2.434,,,,,814.4912479999475,819.4900703001767,819.4900772003457,819.5065627000295,831.5234111002646,831.4904330000281,,,,,,,,,,,,,,,,,,,,,,,,,,,,,sub-035,46.3,44.4,47.2,COM3,2024-05-03_14h03.03.566,2024_RDpaindiscrimination_maintask,2023.2.3,60.03204525192162,2024-05-03 14h03.46.030208 -0400,
0,0,0,0,,,,,3,0,3,0,,,,,0,0,0,0,836.9734698003158,,,,,,,,,,,,,0,active,,,,,,,,,,,,,,,,833.9434173000045,836.9571972000413,836.9575106003322,841.95712500019,841.9571321001276,841.9734527999535,849.9569753003307,849.9569753003307,852.92364680022,852.9570210003294,852.9570210003294,852.9405088000931,4.3,4.5,430,450,8,1.2,0.75,pic-present,1,n,0.3336280998773873,None,,,,,sub-035,46.3,44.4,47.2,COM3,2024-05-03_14h03.03.566,2024_RDpaindiscrimination_maintask,2023.2.3,60.03204525192162,2024-05-03 14h03.46.030208 -0400,
0,0,0,0,,,,,3,0,3,0,,,,,1,0,1,0,852.9570210003294,,,,,,,,,,,,,1,active,,,,,,,,,,,,,,,,,,852.9410920003429,857.9405678003095,857.9405750003643,857.9570825002156,865.9405131000094,865.9405131000094,868.9071389003657,868.9404743001796,868.9404743001796,868.9240224999376,3.71,5.09,371,509,8,1.2,0.75,pic-absent,0,m,0.6262819999828935,None,,,,,sub-035,46.3,44.4,47.2,COM3,2024-05-03_14h03.03.566,2024_RDpaindiscrimination_maintask,2023.2.3,60.03204525192162,2024-05-03 14h03.46.030208 -0400,
0,0,0,0,,,,,3,0,3,0,,,,,2,0,2,0,868.9404743001796,,,,,,,,,,,,,2,inactive,,,,,,,,,,,,,,,,,,868.9244996001944,873.9240911002271,873.924098700285,873.9405348999426,881.9239703002386,881.9239703002386,884.8906829003245,884.9240655000322,884.9240655000322,884.9075221000239,3.71,5.09,371,509,8,1.2,0.75,pic-present,1,n,0.6344884000718594,None,,,,,sub-035,46.3,44.4,47.2,COM3,2024-05-03_14h03.03.566,2024_RDpaindiscrimination_maintask,2023.2.3,60.03204525192162,2024-05-03 14h03.46.030208 -0400,
0,0,0,0,,,,,3,0,3,0,,,,,3,0,3,0,884.9240655000322,,,,,,,,,,,,,3,active,,,,,,,,,,,,,,,,,,884.9079780001193,889.9075686000288,889.9075751001947,889.9241397003643,897.9075150000863,897.9075150000863,900.874286999926,900.9075151002035,900.9075151002035,900.8910778001882,3.93,4.87,393,487,8,1.2,0.75,pic-present,1,n,0.6427550995722413,None,,,,,sub-035,46.3,44.4,47.2,COM3,2024-05-03_14h03.03.566,2024_RDpaindiscrimination_maintask,2023.2.3,60.03204525192162,2024-05-03 14h03.46.030208 -0400,
1,0,1,0,0,0,0,0,,,,,,,,,,,,,975.8251601001248,,,,970.8089451999404,972.1755216000602,972.175529200118,975.8128101001494,975.8131349999458,980.808946700301,980.8089534002356,980.8253280003555,992.8092825999483,0,inactive,46.3,992.8094971999526,996.278579799924,69.49999999999983,3.447,992.8420859002508,,,,,,,,,,,,,,,,,,,,,,,,,,,,,,,,,,900.8915495001711,970.8087979000993,,,sub-035,46.3,44.4,47.2,COM3,2024-05-03_14h03.03.566,2024_RDpaindiscrimination_maintask,2023.2.3,60.03204525192162,2024-05-03 14h03.46.030208 -0400,
1,0,1,0,1,0,1,0,,,,,,,,,,,,,996.2921631000936,,,,,,,,996.2794153001159,1001.2757075000554,1001.275713799987,1001.2922171000391,1013.2762083001435,1,active,44.4,1013.2763513000682,1015.5937795001082,30.50000000000007,2.298,1013.309083300177,,,,,,,,,,,,,,,,,,,,,,,,,,,,,,,,,,,,,,sub-035,46.3,44.4,47.2,COM3,2024-05-03_14h03.03.566,2024_RDpaindiscrimination_maintask,2023.2.3,60.03204525192162,2024-05-03 14h03.46.030208 -0400,
1,0,1,0,2,0,2,0,,,,,,,,,,,,,1015.609123500064,,,,,,,,1015.5940332999453,1020.5926459999755,1020.5926526999101,1020.6091757002287,1032.593079900369,2,inactive,46.3,1032.593226800207,1035.8611037000082,61.49999999999999,3.249,1032.6259929002263,,,,,,,,,,,,,,,,,,,,,,,,,,,,,,,,,,,,,,sub-035,46.3,44.4,47.2,COM3,2024-05-03_14h03.03.566,2024_RDpaindiscrimination_maintask,2023.2.3,60.03204525192162,2024-05-03 14h03.46.030208 -0400,
1,0,1,0,3,0,3,0,,,,,,,,,,,,,1035.8760732002556,,,,,,,,1035.8618866000324,1040.8596049002372,1040.859611300286,1040.8761145002209,1052.8600114001893,3,active,44.4,1052.8601611000486,1056.8962282999419,21.00000000000021,4.018,1052.8929242999293,,,,,,,,,,,,,,,,,,,,,,,,,,,,,,,,,,,,,,sub-035,46.3,44.4,47.2,COM3,2024-05-03_14h03.03.566,2024_RDpaindiscrimination_maintask,2023.2.3,60.03204525192162,2024-05-03 14h03.46.030208 -0400,
1,0,1,0,4,0,4,0,,,,,,,,,,,,,1056.9095479003154,,,,,,,,1056.897069599945,1061.8932087002322,1061.8932154001668,1061.9096765001304,1073.893639900256,0,active,44.4,1073.8937862003222,1076.5623789001256,11.0,2.65,1073.926493300125,,,,,,,,,,,,,,,,,,,,,,,,,,,,,,,,,,,,,,sub-035,46.3,44.4,47.2,COM3,2024-05-03_14h03.03.566,2024_RDpaindiscrimination_maintask,2023.2.3,60.03204525192162,2024-05-03 14h03.46.030208 -0400,
1,0,1,0,5,0,5,0,,,,,,,,,,,,,1076.5765750003047,,,,,,,,1076.563171100337,1081.5601602001116,1081.5601671002805,1081.5766024002805,1093.56055309996,1,inactive,46.3,1093.5606995001435,1096.7958897002973,65.99999999999984,3.216,1093.5934304003604,,,,,,,,,,,,,,,,,,,,,,,,,,,,,,,,,,,,,,sub-035,46.3,44.4,47.2,COM3,2024-05-03_14h03.03.566,2024_RDpaindiscrimination_maintask,2023.2.3,60.03204525192162,2024-05-03 14h03.46.030208 -0400,
1,0,1,0,6,0,6,0,,,,,,,,,,,,,1096.810106500052,,,,,,,,1096.796749399975,1101.7937606000341,1101.793767500203,1101.8101592003368,1113.7941399002448,2,active,44.4,1113.794287700206,1115.5457246000879,19.000000000000036,1.733,1113.827023500111,,,,,,,,,,,,,,,,,,,,,,,,,,,,,,,,,,,,,,sub-035,46.3,44.4,47.2,COM3,2024-05-03_14h03.03.566,2024_RDpaindiscrimination_maintask,2023.2.3,60.03204525192162,2024-05-03 14h03.46.030208 -0400,
1,0,1,0,7,0,7,0,,,,,,,,,,,,,1115.5604020999745,,,,,,,,1115.5459841000848,1120.5439557000063,1120.543967500329,1120.5604390003718,1132.5443815002218,3,inactive,46.3,1132.5445282999426,1135.0460512000136,60.99999999999996,2.483,1132.57721520029,,,,,,,,,,,,,,,,,,,,,,,,,,,,,,,,,,,,,,sub-035,46.3,44.4,47.2,COM3,2024-05-03_14h03.03.566,2024_RDpaindiscrimination_maintask,2023.2.3,60.03204525192162,2024-05-03 14h03.46.030208 -0400,
1,0,1,0,8,0,8,0,,,,,,,,,,,,,1135.0605943999253,,,,,,,,1135.0466261003166,1140.0441601001658,1140.0441668001004,1140.0607239999808,1152.0446105003357,0,inactive,46.3,1152.0447573000565,1153.9294586000033,77.00000000000001,1.866,1152.0774845001288,,,,,,,,,,,,,,,,,,,,,,,,,,,,,,,,,,,,,,sub-035,46.3,44.4,47.2,COM3,2024-05-03_14h03.03.566,2024_RDpaindiscrimination_maintask,2023.2.3,60.03204525192162,2024-05-03 14h03.46.030208 -0400,
1,0,1,0,9,0,9,0,,,,,,,,,,,,,1153.9441766003147,,,,,,,,1153.930223800242,1158.9277363000438,1158.9277429999784,1158.9442537999712,1170.928194399923,1,active,44.4,1170.928342900239,1173.9976503001526,21.50000000000003,3.05,1170.9610554003157,,,,,,,,,,,,,,,,,,,,,,,,,,,,,,,,,,,,,,sub-035,46.3,44.4,47.2,COM3,2024-05-03_14h03.03.566,2024_RDpaindiscrimination_maintask,2023.2.3,60.03204525192162,2024-05-03 14h03.46.030208 -0400,
1,0,1,0,10,0,10,0,,,,,,,,,,,,,1174.0111492001452,,,,,,,,1173.998470300343,1178.994674900081,1178.99468180025,1179.0111597003415,1190.995166500099,2,active,44.4,1190.9953109999187,1193.6302541000769,24.500000000000057,2.616,1191.0279836002737,,,,,,,,,,,,,,,,,,,,,,,,,,,,,,,,,,,,,,sub-035,46.3,44.4,47.2,COM3,2024-05-03_14h03.03.566,2024_RDpaindiscrimination_maintask,2023.2.3,60.03204525192162,2024-05-03 14h03.46.030208 -0400,
1,0,1,0,11,0,11,0,,,,,,,,,,,,,1193.6447278000414,,,,,,,,1193.6310037001967,1198.6283587003127,1198.628365200013,1198.6447870000266,1210.6287374999374,3,inactive,46.3,1210.6288815001026,1213.9800019999966,56.99999999999995,3.332,1210.6616079001687,,,,,,,,,,,,,,,,,,,,,,,,,,,,,,,,,,,,,,sub-035,46.3,44.4,47.2,COM3,2024-05-03_14h03.03.566,2024_RDpaindiscrimination_maintask,2023.2.3,60.03204525192162,2024-05-03 14h03.46.030208 -0400,
1,0,1,0,12,0,12,0,,,,,,,,,,,,,1213.995012300089,,,,,,,,1213.9807926001959,1218.9786008000374,1218.9786077002063,1218.9950514002703,1230.9790016002953,0,active,44.4,1230.9791610999964,1233.364540700335,13.0000000000001,2.367,1231.0118702999316,,,,,,,,,,,,,,,,,,,,,,,,,,,,,,,,,,,,,,sub-035,46.3,44.4,47.2,COM3,2024-05-03_14h03.03.566,2024_RDpaindiscrimination_maintask,2023.2.3,60.03204525192162,2024-05-03 14h03.46.030208 -0400,
1,0,1,0,13,0,13,0,,,,,,,,,,,,,1233.3785720001906,,,,,,,,1233.3652806999162,1238.3621366000734,1238.3621435002424,1238.3786524003372,1250.3626498999074,1,inactive,46.3,1250.362795300316,1253.6815760000609,65.49999999999994,3.299,1250.3955354001373,,,,,,,,,,,,,,,,,,,,,,,,,,,,,,,,,,,,,,sub-035,46.3,44.4,47.2,COM3,2024-05-03_14h03.03.566,2024_RDpaindiscrimination_maintask,2023.2.3,60.03204525192162,2024-05-03 14h03.46.030208 -0400,
1,0,1,0,14,0,14,0,,,,,,,,,,,,,1253.6955520999618,,,,,,,,1253.6823289999738,1258.679147100076,1258.6791537003592,1258.6956446003169,1270.6795981000178,2,inactive,46.3,1270.679744800087,1272.8633806002326,65.00000000000001,2.164,1270.712491299957,,,,,,,,,,,,,,,,,,,,,,,,,,,,,,,,,,,,,,sub-035,46.3,44.4,47.2,COM3,2024-05-03_14h03.03.566,2024_RDpaindiscrimination_maintask,2023.2.3,60.03204525192162,2024-05-03 14h03.46.030208 -0400,
1,0,1,0,15,0,15,0,,,,,,,,,,,,,1272.8790919003077,,,,,,,,1272.8636235999875,1277.8627940001898,1277.8628011001274,1277.8792355000041,1289.8631810001098,3,active,44.4,1289.8633253001608,1293.2979169003665,29.00000000000005,3.416,1289.896042600274,,,,,,,,,,,,,,,,,,,,,,,,,,,,,,,,,,,,,,sub-035,46.3,44.4,47.2,COM3,2024-05-03_14h03.03.566,2024_RDpaindiscrimination_maintask,2023.2.3,60.03204525192162,2024-05-03 14h03.46.030208 -0400,
1,0,1,0,,,,,0,0,0,0,0,0,0,0,,,,,1300.9627821003087,,,,,,1299.730129700154,1300.9466417003423,,,,,,0,inactive,46.3,1317.9468193002976,1321.3828594000079,67.99999999999984,3.418,,1293.2985137002543,1293.3127728002146,1299.7298008003272,1300.9469453003258,1305.9464263999835,1305.9464332000352,1305.9629102000035,1317.979780100286,1317.9468109002337,,,,,,,,,,,,,,,,,,,,,,,,,,,,,sub-035,46.3,44.4,47.2,COM3,2024-05-03_14h03.03.566,2024_RDpaindiscrimination_maintask,2023.2.3,60.03204525192162,2024-05-03 14h03.46.030208 -0400,
1,0,1,0,,,,,0,0,0,0,1,0,1,0,,,,,1321.3964996002614,,,,,,,,,,,,,1,active,46.3,1338.3803182002157,1340.7307521002367,58.50000000000001,2.331,,,,,1321.3836300000548,1326.3800407000817,1326.3800483001396,1326.3964633001015,1338.413194200024,1338.3803099999204,,,,,,,,,,,,,,,,,,,,,,,,,,,,,sub-035,46.3,44.4,47.2,COM3,2024-05-03_14h03.03.566,2024_RDpaindiscrimination_maintask,2023.2.3,60.03204525192162,2024-05-03 14h03.46.030208 -0400,
1,0,1,0,,,,,0,0,0,0,,,,,0,0,0,0,1343.4799252003431,,,,,,,,,,,,,2,inactive,,,,,,,,,,,,,,,,1340.7309477999806,1343.4635550002567,1343.4638928999193,1348.463557700161,1348.4635645002127,1348.4799915999174,1356.4634285001084,1356.4634285001084,1359.4302131999284,1359.4634674000554,1359.4634674000554,1359.446977100335,3.34,5.46,334,546,8,1.2,0.75,pic-absent,0,m,0.42765390034765005,None,,,,,sub-035,46.3,44.4,47.2,COM3,2024-05-03_14h03.03.566,2024_RDpaindiscrimination_maintask,2023.2.3,60.03204525192162,2024-05-03 14h03.46.030208 -0400,
1,0,1,0,,,,,0,0,0,0,,,,,1,0,1,0,1359.4634674000554,,,,,,,,,,,,,3,active,,,,,,,,,,,,,,,,,,1359.4475162001327,1364.4471847000532,1364.447191100102,1364.4636099003255,1372.4471072000451,1372.4471072000451,1375.4137249002233,1375.4471245999448,1375.4471245999448,1375.4306821003556,3.42,5.38,342,538,8,1.2,0.75,pic-absent,0,m,0.4835654003545642,None,,,,,sub-035,46.3,44.4,47.2,COM3,2024-05-03_14h03.03.566,2024_RDpaindiscrimination_maintask,2023.2.3,60.03204525192162,2024-05-03 14h03.46.030208 -0400,
1,0,1,0,,,,,0,0,0,0,,,,,2,0,2,0,1375.4471245999448,,,,,,,,,,,,,0,inactive,,,,,,,,,,,,,,,,,,1375.4311709003523,1380.430565299932,1380.4305724999867,1380.4470664002001,1388.4305430003442,1388.4305430003442,1391.3972503999248,1391.430583999958,1391.430583999958,1391.4141730000265,4.59,4.21,459,421,8,1.2,0.75,pic-present,1,n,0.6360592003911734,None,,,,,sub-035,46.3,44.4,47.2,COM3,2024-05-03_14h03.03.566,2024_RDpaindiscrimination_maintask,2023.2.3,60.03204525192162,2024-05-03 14h03.46.030208 -0400,
1,0,1,0,,,,,0,0,0,0,,,,,3,0,3,0,1391.430583999958,,,,,,,,,,,,,1,active,,,,,,,,,,,,,,,,,,1391.4146585003473,1396.4143460001796,1396.4143532002345,1396.4306741002947,1404.414120499976,1404.414120499976,1407.3808242003433,1407.4141607000493,1407.4141607000493,1407.3976810001768,3.82,4.98,382,498,8,1.2,0.75,pic-absent,0,m,0.5050246003083885,None,,,,,sub-035,46.3,44.4,47.2,COM3,2024-05-03_14h03.03.566,2024_RDpaindiscrimination_maintask,2023.2.3,60.03204525192162,2024-05-03 14h03.46.030208 -0400,
1,0,1,0,,,,,1,0,1,0,0,0,0,0,,,,,1409.9641575999558,,,,,,1407.3981880000792,1409.9478987003677,,,,,,2,active,46.3,1426.948375500273,1429.7661799001507,49.99999999999997,2.799,,,,,1409.9482186003588,1414.9478710000403,1414.947877699975,1414.9642607001588,1426.9811010002159,1426.9483668999746,,,,,,,,,,,,,,,,,,,,,,,,,,,,,sub-035,46.3,44.4,47.2,COM3,2024-05-03_14h03.03.566,2024_RDpaindiscrimination_maintask,2023.2.3,60.03204525192162,2024-05-03 14h03.46.030208 -0400,
1,0,1,0,,,,,1,0,1,0,1,0,1,0,,,,,1429.781076699961,,,,,,,,,,,,,3,inactive,46.3,1446.765090400353,1450.6837404002436,44.50000000000009,3.9,,,,,1429.7669587000273,1434.7646739999764,1434.7646810002625,1434.7811945001595,1446.7980013000779,1446.765082700178,,,,,,,,,,,,,,,,,,,,,,,,,,,,,sub-035,46.3,44.4,47.2,COM3,2024-05-03_14h03.03.566,2024_RDpaindiscrimination_maintask,2023.2.3,60.03204525192162,2024-05-03 14h03.46.030208 -0400,
1,0,1,0,,,,,1,0,1,0,,,,,0,0,0,0,1453.3314304999076,,,,,,,,,,,,,0,inactive,,,,,,,,,,,,,,,,1450.6843036999926,1453.3150873002596,1453.315409600269,1458.3149733999744,1458.3149803001434,1458.331501299981,1466.3149274000898,1466.3149274000898,1469.2816273001954,1469.3150760000572,1469.3150760000572,1469.2984759001993,4.47,4.33,447,433,8,1.2,0.75,pic-present,1,n,0.5796070001088083,None,,,,,sub-035,46.3,44.4,47.2,COM3,2024-05-03_14h03.03.566,2024_RDpaindiscrimination_maintask,2023.2.3,60.03204525192162,2024-05-03 14h03.46.030208 -0400,
1,0,1,0,,,,,1,0,1,0,,,,,1,0,1,0,1469.3150760000572,,,,,,,,,,,,,1,inactive,,,,,,,,,,,,,,,,,,1469.2990461001173,1474.29852270009,1474.298530000262,1474.3150438000448,1482.2984623000957,1482.2984623000957,1485.2651684000157,1485.2984975003637,1485.2984975003637,1485.282129399944,4.63,4.17,463,417,8,1.2,0.75,pic-present,1,n,0.588474600110203,None,,,,,sub-035,46.3,44.4,47.2,COM3,2024-05-03_14h03.03.566,2024_RDpaindiscrimination_maintask,2023.2.3,60.03204525192162,2024-05-03 14h03.46.030208 -0400,
1,0,1,0,,,,,1,0,1,0,,,,,2,0,2,0,1485.2984975003637,,,,,,,,,,,,,2,active,,,,,,,,,,,,,,,,,,1485.2826130003668,1490.2820606003515,1490.2820675000548,1490.2985576000065,1498.2820009002462,1498.2820009002462,1501.2487110001966,1501.282058400102,1501.282058400102,1501.2656172001734,3.93,4.87,393,487,8,1.2,0.75,pic-absent,0,m,0.5052797999233007,None,,,,,sub-035,46.3,44.4,47.2,COM3,2024-05-03_14h03.03.566,2024_RDpaindiscrimination_maintask,2023.2.3,60.03204525192162,2024-05-03 14h03.46.030208 -0400,
1,0,1,0,,,,,1,0,1,0,,,,,3,0,3,0,1501.282058400102,,,,,,,,,,,,,3,inactive,,,,,,,,,,,,,,,,,,1501.2660668003373,1506.2656017001718,1506.2656084001064,1506.2821114999242,1514.265534300357,1514.265534300357,1517.23228880018,1517.265623100102,1517.265623100102,1517.2491081999615,3.43,5.37,343,537,8,1.2,0.75,pic-absent,0,m,0.3298689001239836,None,,,,,sub-035,46.3,44.4,47.2,COM3,2024-05-03_14h03.03.566,2024_RDpaindiscrimination_maintask,2023.2.3,60.03204525192162,2024-05-03 14h03.46.030208 -0400,
1,0,1,0,,,,,2,0,2,0,0,0,0,0,,,,,1519.7489833999425,,,,,,1517.2495772000402,1519.732676600106,,,,,,0,active,46.3,1536.732918499969,1539.1510255001485,50.99999999999997,2.399,,,,,1519.7330122999847,1524.7324399002828,1524.7324463003315,1524.7490328000858,1536.765845200047,1536.7329097003676,,,,,,,,,,,,,,,,,,,,,,,,,,,,,sub-035,46.3,44.4,47.2,COM3,2024-05-03_14h03.03.566,2024_RDpaindiscrimination_maintask,2023.2.3,60.03204525192162,2024-05-03 14h03.46.030208 -0400,
1,0,1,0,,,,,2,0,2,0,1,0,1,0,,,,,1539.165823300369,,,,,,,,,,,,,1,inactive,46.3,1556.1497351001017,1558.7837185002863,60.49999999999986,2.615,,,,,1539.1518322001211,1544.149446300231,1544.1494530001655,1544.165905599948,1556.182754599955,1556.1497261999175,,,,,,,,,,,,,,,,,,,,,,,,,,,,,sub-035,46.3,44.4,47.2,COM3,2024-05-03_14h03.03.566,2024_RDpaindiscrimination_maintask,2023.2.3,60.03204525192162,2024-05-03 14h03.46.030208 -0400,
1,0,1,0,,,,,2,0,2,0,,,,,0,0,0,0,1561.7161228000186,,,,,,,,,,,,,2,active,,,,,,,,,,,,,,,,1558.7840196001343,1561.699942599982,1561.7002711002715,1566.6996904001571,1566.699697300326,1566.7161865001544,1574.69972039992,1574.69972039992,1577.6663429001346,1577.6996667999774,1577.6996667999774,1577.6832248000428,4.05,4.75,405,475,8,1.2,0.75,pic-present,1,n,0.39573949994519353,None,,,,,sub-035,46.3,44.4,47.2,COM3,2024-05-03_14h03.03.566,2024_RDpaindiscrimination_maintask,2023.2.3,60.03204525192162,2024-05-03 14h03.46.030208 -0400,
1,0,1,0,,,,,2,0,2,0,,,,,1,0,1,0,1577.6996667999774,,,,,,,,,,,,,3,inactive,,,,,,,,,,,,,,,,,,1577.6837267000228,1582.6832149000838,1582.6832220000215,1582.6999284001067,1590.683175000362,1590.683175000362,1593.6498938002624,1593.6832106001675,1593.6832106001675,1593.6667141001672,4.39,4.41,438,441,8,1.2,0.75,pic-absent,0,m,0.35986549966037273,None,,,,,sub-035,46.3,44.4,47.2,COM3,2024-05-03_14h03.03.566,2024_RDpaindiscrimination_maintask,2023.2.3,60.03204525192162,2024-05-03 14h03.46.030208 -0400,
1,0,1,0,,,,,2,0,2,0,,,,,2,0,2,0,1593.6832106001675,,,,,,,,,,,,,0,active,,,,,,,,,,,,,,,,,,1593.667193800211,1598.6667623003013,1598.6667696000077,1598.683265300002,1606.666739600245,1606.666739600245,1609.6334115001373,1609.6667424999177,1609.6667424999177,1609.650255500339,4.0,4.8,400,480,8,1.2,0.75,pic-present,1,n,0.3685802002437413,None,,,,,sub-035,46.3,44.4,47.2,COM3,2024-05-03_14h03.03.566,2024_RDpaindiscrimination_maintask,2023.2.3,60.03204525192162,2024-05-03 14h03.46.030208 -0400,
1,0,1,0,,,,,2,0,2,0,,,,,3,0,3,0,1609.6667424999177,,,,,,,,,,,,,1,inactive,,,,,,,,,,,,,,,,,,1609.6507580000907,1614.6503365999088,1614.650343600195,1614.6668116003275,1622.6503706001677,1622.6503706001677,1625.6169492001645,1625.6502823000774,1625.6502823000774,1625.633797999937,4.65,4.15,465,415,8,1.2,0.75,pic-present,1,n,0.6123601999133825,None,,,,,sub-035,46.3,44.4,47.2,COM3,2024-05-03_14h03.03.566,2024_RDpaindiscrimination_maintask,2023.2.3,60.03204525192162,2024-05-03 14h03.46.030208 -0400,
1,0,1,0,,,,,3,0,3,0,0,0,0,0,,,,,1627.616980300285,,,,,,1625.6342688999139,1627.60063430015,,,,,,2,inactive,46.3,1644.6011541001499,1647.386473200284,56.49999999999987,2.766,,,,,1627.6009307000786,1632.6005432000384,1632.6005506003276,1632.6170493001118,1644.6338615999557,1644.601145800203,,,,,,,,,,,,,,,,,,,,,,,,,,,,,sub-035,46.3,44.4,47.2,COM3,2024-05-03_14h03.03.566,2024_RDpaindiscrimination_maintask,2023.2.3,60.03204525192162,2024-05-03 14h03.46.030208 -0400,
1,0,1,0,,,,,3,0,3,0,1,0,1,0,,,,,1647.4005630002357,,,,,,,,,,,,,3,active,46.3,1664.384616299998,1667.3192280000076,57.49999999999987,2.916,,,,,1647.3872612002306,1652.3841270999983,1652.38413390005,1652.4006389002316,1664.4174470002763,1664.3846081001684,,,,,,,,,,,,,,,,,,,,,,,,,,,,,sub-035,46.3,44.4,47.2,COM3,2024-05-03_14h03.03.566,2024_RDpaindiscrimination_maintask,2023.2.3,60.03204525192162,2024-05-03 14h03.46.030208 -0400,
1,0,1,0,,,,,3,0,3,0,,,,,0,0,0,0,1669.667529300321,,,,,,,,,,,,,0,active,,,,,,,,,,,,,,,,1667.3197570000775,1669.6511645000428,1669.6514765000902,1674.6510854000226,1674.6510924003087,1674.6675923001021,1682.6510286000557,1682.6510286000557,1685.6178525001742,1685.6511325002648,1685.6511325002648,1685.634680500254,4.51,4.29,451,429,8,1.2,0.75,pic-absent,0,m,0.4998792000114918,None,,,,,sub-035,46.3,44.4,47.2,COM3,2024-05-03_14h03.03.566,2024_RDpaindiscrimination_maintask,2023.2.3,60.03204525192162,2024-05-03 14h03.46.030208 -0400,
1,0,1,0,,,,,3,0,3,0,,,,,1,0,1,0,1685.6511325002648,,,,,,,,,,,,,1,active,,,,,,,,,,,,,,,,,,1685.6352373999543,1690.6348183001392,1690.634824700188,1690.6511810999364,1698.6346658002585,1698.6346658002585,1701.6013111001812,1701.6346283000894,1701.6346283000894,1701.618199700024,3.71,5.09,371,509,8,1.2,0.75,pic-present,1,n,0.41254650009796023,None,,,,,sub-035,46.3,44.4,47.2,COM3,2024-05-03_14h03.03.566,2024_RDpaindiscrimination_maintask,2023.2.3,60.03204525192162,2024-05-03 14h03.46.030208 -0400,
1,0,1,0,,,,,3,0,3,0,,,,,2,0,2,0,1701.6346283000894,,,,,,,,,,,,,2,inactive,,,,,,,,,,,,,,,,,,1701.6186553002335,1706.6182222999632,1706.6182290003635,1706.63470840035,1714.6181366001256,1714.6181366001256,1717.5848449999467,1717.618177600205,1717.618177600205,1717.6017034999095,4.5,4.3,450,430,8,1.2,0.75,pic-absent,0,m,0.5691666998900473,None,,,,,sub-035,46.3,44.4,47.2,COM3,2024-05-03_14h03.03.566,2024_RDpaindiscrimination_maintask,2023.2.3,60.03204525192162,2024-05-03 14h03.46.030208 -0400,
1,0,1,0,,,,,3,0,3,0,,,,,3,0,3,0,1717.618177600205,,,,,,,,,,,,,3,active,,,,,,,,,,,,,,,,,,1717.602156500332,1722.6017400003038,1722.6017472003587,1722.6182643999346,1730.6017778003588,1730.6017778003588,1733.5684734000824,1733.6017380999401,1733.6017380999401,1733.5852300999686,4.1,4.7,409,470,8,1.2,0.75,pic-present,1,n,0.3899862999096513,None,,,,,sub-035,46.3,44.4,47.2,COM3,2024-05-03_14h03.03.566,2024_RDpaindiscrimination_maintask,2023.2.3,60.03204525192162,2024-05-03 14h03.46.030208 -0400,
,,,,,,,,,,,,,,,,,,,,,,,,,,,,,,,,,,,,,,,,,,,,,,,,,,,,,,,,,,,,,,,,,,,,,,,,,,1733.5856987000443,1735.118747800123,1735.1187653001398,1745.118698300328,,,,,,,,,,,
