trials.thisRepN,trials.thisTrialN,trials.thisN,trials.thisIndex,loop_test.thisRepN,loop_test.thisTrialN,loop_test.thisN,loop_test.thisIndex,loop_eval_discri.thisRepN,loop_eval_discri.thisTrialN,loop_eval_discri.thisN,loop_eval_discri.thisIndex,loop_eval.thisRepN,loop_eval.thisTrialN,loop_eval.thisN,loop_eval.thisIndex,loop_discri.thisRepN,loop_discri.thisTrialN,loop_discri.thisN,loop_discri.thisIndex,thisRow.t,notes,Set_up.started,Set_up.stopped,electrode_check.started,electrode_check.stopped,instructions_eval.started,instructions_eval.stopped,pause_5_test.started,pause_5_test.stopped,Phase_Test.started,thermode_locali.started,Phase_Test.stopped,loca_thermode,condition,temp_trial_sent,eval_douleur.started,eval_douleur.stopped,ratingScale.response,ratingScale.rt,thermode_locali.stopped,Fin_test.started,text.started,Fin_test.stopped,pause_5_EVA.started,pause_5_EVA.stopped,tâche_EVA.started,thermode_locali_EVA.started,thermode_locali_EVA.stopped,tâche_EVA.stopped,instructions_discrim.started,instructions_discrim.stopped,pause_5_pic.started,pause_5_pic.stopped,tâche_PIC.started,thermode_locali_pic.started,percu_or.started,responser.started,thermode_locali_pic.stopped,percu_or.stopped,responser.stopped,tâche_PIC.stopped,dur_plateau1,dur_plateau2,dur_plateau1_sent,dur_plateau2_sent,start_plateau_2_resp,dur_pic,dur_rise,pic_presence,pic_response,discrimin_resp.keys,discrimin_resp.rt,discrimin_resp.duration,break_entre_bloc.started,break_entre_bloc.stopped,merci.started,merci.stopped,participant,temp_flat,temp_active,temp_pic_set,com_thermode,date,expName,psychopyVersion,frameRate,expStart,
0,0,0,0,0,0,0,0,,,,,,,,,,,,,106.91675450000912,,0.01558060001116246,103.93376279994845,103.93414319993462,105.10035089997109,105.10035999992397,106.9004081999883,106.90069619996939,111.9004500999581,111.90045769989956,111.91689909994602,123.90044549992308,0,active,46.0,123.90068959991913,129.51865119999275,11.499999999999993,5.595,,,,,,,,,,,,,,,,,,,,,,,,,,,,,,,,,,,,,,,sub-014,47.8,46,48.3,COM3,2024-02-05_12h48.27.525,2024_RDpaindiscrimination_maintask,2023.2.3,59.99743211829064,2024-02-05 12h48.46.272767 -0500,
0,0,0,0,1,0,1,0,,,,,,,,,,,,,129.53381609998178,,,,,,,,129.51956739998423,134.5173638999695,134.51737089990638,134.53381569997873,146.51779169996735,1,inactive,47.8,146.51792929996736,150.83613339997828,21.5000000000001,4.299,146.55062230001204,,,,,,,,,,,,,,,,,,,,,,,,,,,,,,,,,,,,,,sub-014,47.8,46,48.3,COM3,2024-02-05_12h48.27.525,2024_RDpaindiscrimination_maintask,2023.2.3,59.99743211829064,2024-02-05 12h48.46.272767 -0500,
0,0,0,0,2,0,2,0,,,,,,,,,,,,,150.85071299993433,,,,,,,,150.836878699949,155.8342668999685,155.83427369990386,155.85076940001454,167.83470869995654,2,inactive,47.8,167.8348529000068,172.35455849999562,29.500000000000142,4.501,167.86759639997035,,,,,,,,,,,,,,,,,,,,,,,,,,,,,,,,,,,,,,sub-014,47.8,46,48.3,COM3,2024-02-05_12h48.27.525,2024_RDpaindiscrimination_maintask,2023.2.3,59.99743211829064,2024-02-05 12h48.46.272767 -0500,
0,0,0,0,3,0,3,0,,,,,,,,,,,,,172.36764760001097,,,,,,,,172.35536399995908,177.35115799994674,177.35116479999851,177.36768409993965,189.3516263999045,3,active,46.0,189.35177589999512,193.15397799992934,16.500000000000007,3.784,189.38449169998057,,,,,,,,,,,,,,,,,,,,,,,,,,,,,,,,,,,,,,sub-014,47.8,46,48.3,COM3,2024-02-05_12h48.27.525,2024_RDpaindiscrimination_maintask,2023.2.3,59.99743211829064,2024-02-05 12h48.46.272767 -0500,
0,0,0,0,4,0,4,0,,,,,,,,,,,,,193.16786349995527,,,,,,,,193.15478219999932,198.15141109994147,198.15141869999934,198.16791690001264,210.15185399993788,0,inactive,47.8,210.15200289990753,216.0875216999557,30.500000000000142,5.916,210.1847201999044,,,,,,,,,,,,,,,,,,,,,,,,,,,,,,,,,,,,,,sub-014,47.8,46,48.3,COM3,2024-02-05_12h48.27.525,2024_RDpaindiscrimination_maintask,2023.2.3,59.99743211829064,2024-02-05 12h48.46.272767 -0500,
0,0,0,0,5,0,5,0,,,,,,,,,,,,,216.10147210001014,,,,,,,,216.08831469994038,221.08502889994998,221.08503590000328,221.1014690999873,233.08545169990975,1,active,46.0,233.08558979991358,238.00368600001093,15.500000000000103,4.899,233.11832309991587,,,,,,,,,,,,,,,,,,,,,,,,,,,,,,,,,,,,,,sub-014,47.8,46,48.3,COM3,2024-02-05_12h48.27.525,2024_RDpaindiscrimination_maintask,2023.2.3,59.99743211829064,2024-02-05 12h48.46.272767 -0500,
0,0,0,0,6,0,6,0,,,,,,,,,,,,,238.01835069991648,,,,,,,,238.00450639997143,243.00198609998915,243.00199289992452,243.01837219996378,255.00229729991406,2,active,46.0,255.0024451999925,262.3209028999554,10.500000000000071,7.299,255.03523089992814,,,,,,,,,,,,,,,,,,,,,,,,,,,,,,,,,,,,,,sub-014,47.8,46,48.3,COM3,2024-02-05_12h48.27.525,2024_RDpaindiscrimination_maintask,2023.2.3,59.99743211829064,2024-02-05 12h48.46.272767 -0500,
0,0,0,0,7,0,7,0,,,,,,,,,,,,,262.3353109000018,,,,,,,,262.3220446999185,267.3188793999143,267.31888649996836,267.3353834999725,279.3192940999288,3,inactive,47.8,279.319435399957,284.5537198999664,28.500000000000185,5.216,279.35218299995176,,,,,,,,,,,,,,,,,,,,,,,,,,,,,,,,,,,,,,sub-014,47.8,46,48.3,COM3,2024-02-05_12h48.27.525,2024_RDpaindiscrimination_maintask,2023.2.3,59.99743211829064,2024-02-05 12h48.46.272767 -0500,
0,0,0,0,8,0,8,0,,,,,,,,,,,,,284.56890569999814,,,,,,,,284.5545499,289.55247499991674,289.55248199997004,289.56892919994425,301.5529192999238,0,active,46.0,301.5530620999634,307.1379551999271,7.000000000000095,5.566,301.5857679999899,,,,,,,,,,,,,,,,,,,,,,,,,,,,,,,,,,,,,,sub-014,47.8,46,48.3,COM3,2024-02-05_12h48.27.525,2024_RDpaindiscrimination_maintask,2023.2.3,59.99743211829064,2024-02-05 12h48.46.272767 -0500,
0,0,0,0,9,0,9,0,,,,,,,,,,,,,307.1525010999758,,,,,,,,307.1386912999442,312.1360617999453,312.1360688999994,312.1525605999632,324.1366439999547,1,inactive,47.8,324.13680350000504,329.7381256999215,55.49999999999991,5.583,324.16934009990655,,,,,,,,,,,,,,,,,,,,,,,,,,,,,,,,,,,,,,sub-014,47.8,46,48.3,COM3,2024-02-05_12h48.27.525,2024_RDpaindiscrimination_maintask,2023.2.3,59.99743211829064,2024-02-05 12h48.46.272767 -0500,
0,0,0,0,10,0,10,0,,,,,,,,,,,,,329.7532560999971,,,,,,,,329.73890210001264,334.73622729990166,334.7362339999527,334.7526862999657,346.7367847999558,2,inactive,47.8,346.7369270999916,353.72131539997645,28.50000000000005,6.965,346.76960559992585,,,,,,,,,,,,,,,,,,,,,,,,,,,,,,,,,,,,,,sub-014,47.8,46,48.3,COM3,2024-02-05_12h48.27.525,2024_RDpaindiscrimination_maintask,2023.2.3,59.99743211829064,2024-02-05 12h48.46.272767 -0500,
0,0,0,0,11,0,11,0,,,,,,,,,,,,,353.73629749997053,,,,,,,,353.7220667999936,358.719763699919,358.71977109997533,358.7363306999905,370.72038809990045,3,active,46.0,370.72052649990655,375.8234226999339,13.500000000000004,5.084,370.75324250000995,,,,,,,,,,,,,,,,,,,,,,,,,,,,,,,,,,,,,,sub-014,47.8,46,48.3,COM3,2024-02-05_12h48.27.525,2024_RDpaindiscrimination_maintask,2023.2.3,59.99743211829064,2024-02-05 12h48.46.272767 -0500,
0,0,0,0,12,0,12,0,,,,,,,,,,,,,375.8366215999704,,,,,,,,375.82425609999336,380.8201778999064,380.820185199962,380.83657409995794,392.8205427000066,0,inactive,47.8,392.8206842999207,399.62184959999286,62.999999999999844,6.782,392.8533921999624,,,,,,,,,,,,,,,,,,,,,,,,,,,,,,,,,,,,,,sub-014,47.8,46,48.3,COM3,2024-02-05_12h48.27.525,2024_RDpaindiscrimination_maintask,2023.2.3,59.99743211829064,2024-02-05 12h48.46.272767 -0500,
0,0,0,0,13,0,13,0,,,,,,,,,,,,,399.6368660000153,,,,,,,,399.6226348999189,404.62035109999124,404.6203581999289,404.63684179994743,416.6208075999748,1,active,46.0,416.62095229991246,421.9222319999244,16.00000000000014,5.282,416.6536974000046,,,,,,,,,,,,,,,,,,,,,,,,,,,,,,,,,,,,,,sub-014,47.8,46,48.3,COM3,2024-02-05_12h48.27.525,2024_RDpaindiscrimination_maintask,2023.2.3,59.99743211829064,2024-02-05 12h48.46.272767 -0500,
0,0,0,0,14,0,14,0,,,,,,,,,,,,,421.93703859997913,,,,,,,,421.92308109998703,426.9206156999571,426.9206273999298,426.9370859999908,438.9210257999366,2,active,46.0,438.9211672999663,442.9071704999078,17.000000000000007,3.967,438.95389449992217,,,,,,,,,,,,,,,,,,,,,,,,,,,,,,,,,,,,,,sub-014,47.8,46,48.3,COM3,2024-02-05_12h48.27.525,2024_RDpaindiscrimination_maintask,2023.2.3,59.99743211829064,2024-02-05 12h48.46.272767 -0500,
0,0,0,0,15,0,15,0,,,,,,,,,,,,,442.92064229992684,,,,,,,,442.90792929998133,447.904185899999,447.9041928999359,447.92067439993843,459.9046261999756,3,inactive,47.8,459.90476659999695,467.0560992999235,67.4999999999999,7.133,459.9374870999018,,,,,,,,,,,,,,,,,,,,,,,,,,,,,,,,,,,,,,sub-014,47.8,46,48.3,COM3,2024-02-05_12h48.27.525,2024_RDpaindiscrimination_maintask,2023.2.3,59.99743211829064,2024-02-05 12h48.46.272767 -0500,
0,0,0,0,,,,,0,0,0,0,0,0,0,0,,,,,522.0882034999086,,,,,,520.6054798999103,522.071812500013,,,,,,0,inactive,47.8,539.0722167999484,546.0418860999634,65.50000000000006,6.951,,467.05672589992173,467.0709061999805,520.6051394999959,522.0721001999918,527.071753499913,527.071761899977,527.0883224999998,539.1050695999293,539.0722067999886,,,,,,,,,,,,,,,,,,,,,,,,,,,,,sub-014,47.8,46,48.3,COM3,2024-02-05_12h48.27.525,2024_RDpaindiscrimination_maintask,2023.2.3,59.99743211829064,2024-02-05 12h48.46.272767 -0500,
0,0,0,0,,,,,0,0,0,0,1,0,1,0,,,,,546.0552236000076,,,,,,,,,,,,,1,active,47.8,563.0393001999473,568.891720399959,58.499999999999936,5.834,,,,,546.0426848999923,551.0387386999791,551.0387460999191,551.0552457999438,563.0720519999741,563.0392920000013,,,,,,,,,,,,,,,,,,,,,,,,,,,,,sub-014,47.8,46,48.3,COM3,2024-02-05_12h48.27.525,2024_RDpaindiscrimination_maintask,2023.2.3,59.99743211829064,2024-02-05 12h48.46.272767 -0500,
0,0,0,0,,,,,0,0,0,0,,,,,0,0,0,0,573.4221624999773,,,,,,,,,,,,,2,inactive,,,,,,,,,,,,,,,,568.8925070000114,573.4058112999192,573.4061362999491,578.4057299999986,578.4057379999431,578.422188699944,586.4056557000149,586.4056557000149,589.3723248000024,589.405657599913,589.405657599913,589.3891669999575,3.52,5.28,352,528,8,1.2,0.75,pic-present,1,m,0.8644603999564424,None,,,,,sub-014,47.8,46,48.3,COM3,2024-02-05_12h48.27.525,2024_RDpaindiscrimination_maintask,2023.2.3,59.99743211829064,2024-02-05 12h48.46.272767 -0500,
0,0,0,0,,,,,0,0,0,0,,,,,1,0,1,0,589.405657599913,,,,,,,,,,,,,3,inactive,,,,,,,,,,,,,,,,,,589.3897942999611,594.3892561999382,594.3892631999915,594.4057463000063,602.3891850999789,602.3891850999789,605.3558814999415,605.3892320999876,605.3892320999876,605.3727411999134,3.25,5.55,325,555,8,1.2,0.75,pic-absent,1,m,1.2540231000166386,None,,,,,sub-014,47.8,46,48.3,COM3,2024-02-05_12h48.27.525,2024_RDpaindiscrimination_maintask,2023.2.3,59.99743211829064,2024-02-05 12h48.46.272767 -0500,
0,0,0,0,,,,,0,0,0,0,,,,,2,0,2,0,605.3892320999876,,,,,,,,,,,,,0,active,,,,,,,,,,,,,,,,,,605.3732898999006,610.3727260999149,610.3727334999712,610.3892281999579,618.3726643999107,618.3726643999107,621.3394104999024,621.3727405999089,621.3727405999089,621.3562051999616,3.73,5.07,373,507,8,1.2,0.75,pic-present,1,m,1.3096503999549896,None,,,,,sub-014,47.8,46,48.3,COM3,2024-02-05_12h48.27.525,2024_RDpaindiscrimination_maintask,2023.2.3,59.99743211829064,2024-02-05 12h48.46.272767 -0500,
0,0,0,0,,,,,0,0,0,0,,,,,3,0,3,0,621.3727405999089,,,,,,,,,,,,,1,inactive,,,,,,,,,,,,,,,,,,621.3567103999667,626.3562507999595,626.3562581000151,626.3727726999205,634.3562299999176,634.3562299999176,637.3228843999095,637.3562437999062,637.3562437999062,637.3397143000038,3.6,5.2,360,520,8,1.2,0.75,pic-present,None,None,,,,,,,sub-014,47.8,46,48.3,COM3,2024-02-05_12h48.27.525,2024_RDpaindiscrimination_maintask,2023.2.3,59.99743211829064,2024-02-05 12h48.46.272767 -0500,
0,0,0,0,,,,,1,0,1,0,0,0,0,0,,,,,641.1895898999646,,,,,,637.3402266999474,641.173293299973,,,,,,2,active,47.8,658.1735977999633,663.6585416999878,38.49999999999997,5.408,,,,,641.1736116999527,646.173161799903,646.1731696999632,646.1896497999551,658.2565019999165,658.1735882000066,,,,,,,,,,,,,,,,,,,,,,,,,,,,,sub-014,47.8,46,48.3,COM3,2024-02-05_12h48.27.525,2024_RDpaindiscrimination_maintask,2023.2.3,59.99743211829064,2024-02-05 12h48.46.272767 -0500,
0,0,0,0,,,,,1,0,1,0,1,0,1,0,,,,,663.6732668000041,,,,,,,,,,,,,3,inactive,47.8,680.6573441999499,685.075675799977,58.00000000000004,4.399,,,,,663.6592877999647,668.6569211999886,668.6569277999224,668.6732924999669,680.6901876999764,680.6573359000031,,,,,,,,,,,,,,,,,,,,,,,,,,,,,sub-014,47.8,46,48.3,COM3,2024-02-05_12h48.27.525,2024_RDpaindiscrimination_maintask,2023.2.3,59.99743211829064,2024-02-05 12h48.46.272767 -0500,
0,0,0,0,,,,,1,0,1,0,,,,,0,0,0,0,687.5569494999945,,,,,,,,,,,,,0,inactive,,,,,,,,,,,,,,,,685.0761968999868,687.5405232999474,687.5408402999165,692.540439000004,692.5404464999447,692.5569092999212,700.5404400000116,700.5404400000116,703.5070732999593,703.5404469999485,703.5404469999485,703.5239592000144,4.18,4.62,418,462,8,1.2,0.75,pic-absent,1,m,1.0702359999995679,None,,,,,sub-014,47.8,46,48.3,COM3,2024-02-05_12h48.27.525,2024_RDpaindiscrimination_maintask,2023.2.3,59.99743211829064,2024-02-05 12h48.46.272767 -0500,
0,0,0,0,,,,,1,0,1,0,,,,,1,0,1,0,703.5404469999485,,,,,,,,,,,,,1,active,,,,,,,,,,,,,,,,,,703.5245011999505,708.5239963999484,708.5240038000047,708.5405201999238,716.5239403999876,716.5239403999876,719.4906287000049,719.5239680999657,719.5239680999657,719.5074384999461,3.82,4.98,382,498,8,1.2,0.75,pic-absent,0,n,1.223088200087659,None,,,,,sub-014,47.8,46,48.3,COM3,2024-02-05_12h48.27.525,2024_RDpaindiscrimination_maintask,2023.2.3,59.99743211829064,2024-02-05 12h48.46.272767 -0500,
0,0,0,0,,,,,1,0,1,0,,,,,2,0,2,0,719.5239680999657,,,,,,,,,,,,,2,inactive,,,,,,,,,,,,,,,,,,719.5079322999809,724.5076074999524,724.5076146000065,724.5240173999919,732.5074552999577,732.5074552999577,735.4741448999848,735.5074659999227,735.5074659999227,735.4909239999251,4.56,4.24,455,424,8,1.2,0.75,pic-present,0,n,1.3225448000011966,None,,,,,sub-014,47.8,46,48.3,COM3,2024-02-05_12h48.27.525,2024_RDpaindiscrimination_maintask,2023.2.3,59.99743211829064,2024-02-05 12h48.46.272767 -0500,
0,0,0,0,,,,,1,0,1,0,,,,,3,0,3,0,735.5074659999227,,,,,,,,,,,,,3,active,,,,,,,,,,,,,,,,,,735.4913720999612,740.4910560999997,740.4910637999419,740.5074656999204,748.4909572999459,748.4909572999459,751.4576698999153,751.4910055999644,751.4910055999644,751.4744865999091,3.86,4.94,386,494,8,1.2,0.75,pic-present,1,m,1.1386391000123695,None,,,,,sub-014,47.8,46,48.3,COM3,2024-02-05_12h48.27.525,2024_RDpaindiscrimination_maintask,2023.2.3,59.99743211829064,2024-02-05 12h48.46.272767 -0500,
0,0,0,0,,,,,2,0,2,0,0,0,0,0,,,,,754.5243810999673,,,,,,751.4749587000115,754.5079621999757,,,,,,0,active,47.8,771.508432499948,777.4928775998997,71.5,5.966,,,,,754.5082839999814,759.5079222999047,759.5079298999626,759.5244383999379,771.5412402999355,771.5084232999943,,,,,,,,,,,,,,,,,,,,,,,,,,,,,sub-014,47.8,46,48.3,COM3,2024-02-05_12h48.27.525,2024_RDpaindiscrimination_maintask,2023.2.3,59.99743211829064,2024-02-05 12h48.46.272767 -0500,
0,0,0,0,,,,,2,0,2,0,1,0,1,0,,,,,777.5079877999378,,,,,,,,,,,,,1,inactive,47.8,794.4918543999083,802.3274420999223,66.99999999999987,7.817,,,,,777.4936688999878,782.4915184999118,782.4915260999696,782.5079619999742,794.5248285999987,794.4918456999585,,,,,,,,,,,,,,,,,,,,,,,,,,,,,sub-014,47.8,46,48.3,COM3,2024-02-05_12h48.27.525,2024_RDpaindiscrimination_maintask,2023.2.3,59.99743211829064,2024-02-05 12h48.46.272767 -0500,
0,0,0,0,,,,,2,0,2,0,,,,,0,0,0,0,805.9916407999117,,,,,,,,,,,,,2,active,,,,,,,,,,,,,,,,802.3280184000032,805.9752264999552,805.9755530999973,810.975194199942,810.9752023000037,810.9916986000026,818.9751085999887,818.9751085999887,821.9417123999447,821.9750373999123,821.9750373999123,821.9585493999766,3.32,5.48,332,548,8,1.2,0.75,pic-absent,1,m,1.2586692000040784,None,,,,,sub-014,47.8,46,48.3,COM3,2024-02-05_12h48.27.525,2024_RDpaindiscrimination_maintask,2023.2.3,59.99743211829064,2024-02-05 12h48.46.272767 -0500,
0,0,0,0,,,,,2,0,2,0,,,,,1,0,1,0,821.9750373999123,,,,,,,,,,,,,3,inactive,,,,,,,,,,,,,,,,,,821.9590802999446,826.9585930999601,826.9586006999016,826.975090199965,834.9586456000106,834.9586456000106,837.9252450999338,837.958560399944,837.958560399944,837.9420783999376,4.11,4.69,411,469,8,1.2,0.75,pic-present,1,m,1.922980200033635,None,,,,,sub-014,47.8,46,48.3,COM3,2024-02-05_12h48.27.525,2024_RDpaindiscrimination_maintask,2023.2.3,59.99743211829064,2024-02-05 12h48.46.272767 -0500,
0,0,0,0,,,,,2,0,2,0,,,,,2,0,2,0,837.958560399944,,,,,,,,,,,,,0,active,,,,,,,,,,,,,,,,,,837.9425789999077,842.942098599975,842.9421060999157,842.9586137000006,850.9420379999792,850.9420379999792,853.9087459999137,853.9420744999079,853.9420744999079,853.9256994999014,3.81,4.99,381,499,8,1.2,0.75,pic-absent,1,m,1.0355916999978945,None,,,,,sub-014,47.8,46,48.3,COM3,2024-02-05_12h48.27.525,2024_RDpaindiscrimination_maintask,2023.2.3,59.99743211829064,2024-02-05 12h48.46.272767 -0500,
0,0,0,0,,,,,2,0,2,0,,,,,3,0,3,0,853.9420744999079,,,,,,,,,,,,,1,inactive,,,,,,,,,,,,,,,,,,853.9261592999101,858.9256310999626,858.9256386999041,858.9421408999478,866.9255560999736,866.9255560999736,869.892259699991,869.9255972999381,869.9255972999381,869.9091091000009,4.08,4.72,408,472,8,1.2,0.75,pic-absent,1,m,2.360269600059837,None,,,,,sub-014,47.8,46,48.3,COM3,2024-02-05_12h48.27.525,2024_RDpaindiscrimination_maintask,2023.2.3,59.99743211829064,2024-02-05 12h48.46.272767 -0500,
0,0,0,0,,,,,3,0,3,0,0,0,0,0,,,,,874.009014399955,,,,,,869.9096146000084,873.9927046999801,,,,,,2,inactive,47.8,890.9930648999289,895.21172199992,53.499999999999915,4.2,,,,,873.9930276999949,878.9925658999709,878.9925737999147,879.0090713999234,891.0259526999434,890.9930552999722,,,,,,,,,,,,,,,,,,,,,,,,,,,,,sub-014,47.8,46,48.3,COM3,2024-02-05_12h48.27.525,2024_RDpaindiscrimination_maintask,2023.2.3,59.99743211829064,2024-02-05 12h48.46.272767 -0500,
0,0,0,0,,,,,3,0,3,0,1,0,1,0,,,,,895.2259666000027,,,,,,,,,,,,,3,active,47.8,912.2098039999837,917.9291925999569,31.50000000000017,5.701,,,,,895.2123615999008,900.2094832999865,900.2094903999241,900.2260084999725,912.2428310000105,912.209795499919,,,,,,,,,,,,,,,,,,,,,,,,,,,,,sub-014,47.8,46,48.3,COM3,2024-02-05_12h48.27.525,2024_RDpaindiscrimination_maintask,2023.2.3,59.99743211829064,2024-02-05 12h48.46.272767 -0500,
0,0,0,0,,,,,3,0,3,0,,,,,0,0,0,0,923.5596344999503,,,,,,,,,,,,,0,active,,,,,,,,,,,,,,,,917.9297571999487,923.5432335999794,923.5435635999311,928.543144700001,928.5431523999432,928.5596678999718,936.543053500005,936.543053500005,939.5097309999401,939.5430763999466,939.5430763999466,939.5265847999835,3.79,5.01,379,501,8,1.2,0.75,pic-present,1,m,1.630408599972725,None,,,,,sub-014,47.8,46,48.3,COM3,2024-02-05_12h48.27.525,2024_RDpaindiscrimination_maintask,2023.2.3,59.99743211829064,2024-02-05 12h48.46.272767 -0500,
0,0,0,0,,,,,3,0,3,0,,,,,1,0,1,0,939.5430763999466,,,,,,,,,,,,,1,active,,,,,,,,,,,,,,,,,,939.5271317999577,944.526632299996,944.5266397999367,944.543121799943,952.5265580000123,952.5265580000123,955.4932257999899,955.5265559999971,955.5265559999971,955.5101044999901,3.54,5.26,354,526,8,1.2,0.75,pic-present,1,m,1.1753575999755412,None,,,,,sub-014,47.8,46,48.3,COM3,2024-02-05_12h48.27.525,2024_RDpaindiscrimination_maintask,2023.2.3,59.99743211829064,2024-02-05 12h48.46.272767 -0500,
0,0,0,0,,,,,3,0,3,0,,,,,2,0,2,0,955.5265559999971,,,,,,,,,,,,,2,inactive,,,,,,,,,,,,,,,,,,955.5105597999645,960.5101609999547,960.5101683000103,960.5266155999852,968.5100808999268,968.5100808999268,971.4767476000125,971.5100814999314,971.5100814999314,971.4935736999614,3.73,5.07,373,507,8,1.2,0.75,pic-absent,None,None,,,,,,,sub-014,47.8,46,48.3,COM3,2024-02-05_12h48.27.525,2024_RDpaindiscrimination_maintask,2023.2.3,59.99743211829064,2024-02-05 12h48.46.272767 -0500,
0,0,0,0,,,,,3,0,3,0,,,,,3,0,3,0,971.5100814999314,,,,,,,,,,,,,3,active,,,,,,,,,,,,,,,,,,971.4939981999341,976.4936275999062,976.4936395999976,976.5101424999302,984.4936092999997,984.4936092999997,987.4602666000137,987.4935984999174,987.4935984999174,987.4771458999021,3.95,4.85,395,484,8,1.2,0.75,pic-absent,1,m,0.9124321000417694,None,,,,,sub-014,47.8,46,48.3,COM3,2024-02-05_12h48.27.525,2024_RDpaindiscrimination_maintask,2023.2.3,59.99743211829064,2024-02-05 12h48.46.272767 -0500,
1,0,1,0,0,0,0,0,,,,,,,,,,,,,1062.0112129999325,,,,1052.8281570000108,1054.328051099903,1054.3280583999585,1061.9948120999616,1061.9951142999344,1066.9947787999408,1066.9947854999918,1067.0112891999306,1078.9951823999872,0,active,46.0,1078.9953923999565,1082.3974856999703,7.499999999999989,3.379,1079.028036899981,,,,,,,,,,,,,,,,,,,,,,,,,,,,,,,,,,987.4776014999952,1052.8280240999302,,,sub-014,47.8,46,48.3,COM3,2024-02-05_12h48.27.525,2024_RDpaindiscrimination_maintask,2023.2.3,59.99743211829064,2024-02-05 12h48.46.272767 -0500,
1,0,1,0,1,0,1,0,,,,,,,,,,,,,1082.4116162999999,,,,,,,,1082.3983382999431,1087.3950151999015,1087.3950219999533,1087.4114633999998,1099.395439099986,1,inactive,47.8,1099.395580799901,1105.0978616999928,49.000000000000114,5.684,1099.4283129000105,,,,,,,,,,,,,,,,,,,,,,,,,,,,,,,,,,,,,,sub-014,47.8,46,48.3,COM3,2024-02-05_12h48.27.525,2024_RDpaindiscrimination_maintask,2023.2.3,59.99743211829064,2024-02-05 12h48.46.272767 -0500,
1,0,1,0,2,0,2,0,,,,,,,,,,,,,1105.1117210999364,,,,,,,,1105.0986150999088,1110.095272699953,1110.0952805000124,1110.1117940999102,1122.0956906999927,2,active,46.0,1122.0958356999326,1127.5637977999868,2.5000000000001292,5.449,1122.128579500015,,,,,,,,,,,,,,,,,,,,,,,,,,,,,,,,,,,,,,sub-014,47.8,46,48.3,COM3,2024-02-05_12h48.27.525,2024_RDpaindiscrimination_maintask,2023.2.3,59.99743211829064,2024-02-05 12h48.46.272767 -0500,
1,0,1,0,3,0,3,0,,,,,,,,,,,,,1127.5786144000012,,,,,,,,1127.5646087999921,1132.5621726999525,1132.5621802000096,1132.578667899943,1144.562648299965,3,active,46.0,1144.5627951999195,1150.3809838999296,11.00000000000017,5.8,1144.5955055999802,,,,,,,,,,,,,,,,,,,,,,,,,,,,,,,,,,,,,,sub-014,47.8,46,48.3,COM3,2024-02-05_12h48.27.525,2024_RDpaindiscrimination_maintask,2023.2.3,59.99743211829064,2024-02-05 12h48.46.272767 -0500,
1,0,1,0,4,0,4,0,,,,,,,,,,,,,1150.3956327999476,,,,,,,,1150.3821297999239,1155.3790989000117,1155.379106199951,1155.3955999999307,1167.3794986999128,0,inactive,47.8,1167.3796447999775,1173.8821895999135,60.00000000000007,6.484,1167.4124502999475,,,,,,,,,,,,,,,,,,,,,,,,,,,,,,,,,,,,,,sub-014,47.8,46,48.3,COM3,2024-02-05_12h48.27.525,2024_RDpaindiscrimination_maintask,2023.2.3,59.99743211829064,2024-02-05 12h48.46.272767 -0500,
1,0,1,0,5,0,5,0,,,,,,,,,,,,,1173.8958134999266,,,,,,,,1173.8830194999464,1178.8794479999924,1178.8794556999346,1178.8958784999559,1190.8799124999205,1,active,46.0,1190.880065599922,1195.331290000002,22.5000000000001,4.433,1190.91280619998,,,,,,,,,,,,,,,,,,,,,,,,,,,,,,,,,,,,,,sub-014,47.8,46,48.3,COM3,2024-02-05_12h48.27.525,2024_RDpaindiscrimination_maintask,2023.2.3,59.99743211829064,2024-02-05 12h48.46.272767 -0500,
1,0,1,0,6,0,6,0,,,,,,,,,,,,,1195.346183699905,,,,,,,,1195.3321162000066,1200.3297667999286,1200.3297733999789,1200.3462441999,1212.3301870999858,2,active,46.0,1212.330324599985,1217.548233199981,15.500000000000103,5.199,1212.3630507999333,,,,,,,,,,,,,,,,,,,,,,,,,,,,,,,,,,,,,,sub-014,47.8,46,48.3,COM3,2024-02-05_12h48.27.525,2024_RDpaindiscrimination_maintask,2023.2.3,59.99743211829064,2024-02-05 12h48.46.272767 -0500,
1,0,1,0,7,0,7,0,,,,,,,,,,,,,1217.5631181999343,,,,,,,,1217.5489923999412,1222.5466764000012,1222.546683799941,1222.5631391999777,1234.5471009999746,3,inactive,47.8,1234.5472424000036,1243.7655192000093,64.49999999999986,9.199,1234.5799280999927,,,,,,,,,,,,,,,,,,,,,,,,,,,,,,,,,,,,,,sub-014,47.8,46,48.3,COM3,2024-02-05_12h48.27.525,2024_RDpaindiscrimination_maintask,2023.2.3,59.99743211829064,2024-02-05 12h48.46.272767 -0500,
1,0,1,0,8,0,8,0,,,,,,,,,,,,,1243.7800890000071,,,,,,,,1243.7657790000085,1248.7636488999706,1248.7636551999021,1248.7800758999074,1260.7640243999194,0,active,46.0,1260.7641676999629,1266.9497411999619,13.000000000000004,6.167,1260.796943699941,,,,,,,,,,,,,,,,,,,,,,,,,,,,,,,,,,,,,,sub-014,47.8,46,48.3,COM3,2024-02-05_12h48.27.525,2024_RDpaindiscrimination_maintask,2023.2.3,59.99743211829064,2024-02-05 12h48.46.272767 -0500,
1,0,1,0,9,0,9,0,,,,,,,,,,,,,1266.9636218999512,,,,,,,,1266.95052329998,1271.947174699977,1271.94718249992,1271.9636304999003,1283.9477214999497,1,inactive,47.8,1283.9478682999033,1290.1493469999405,62.49999999999992,6.182,1283.9805559999077,,,,,,,,,,,,,,,,,,,,,,,,,,,,,,,,,,,,,,sub-014,47.8,46,48.3,COM3,2024-02-05_12h48.27.525,2024_RDpaindiscrimination_maintask,2023.2.3,59.99743211829064,2024-02-05 12h48.46.272767 -0500,
1,0,1,0,10,0,10,0,,,,,,,,,,,,,1290.16389779991,,,,,,,,1290.1501216999022,1295.1474443000043,1295.1474509999389,1295.1639817999676,1307.1478709999938,2,inactive,47.8,1307.148013399914,1313.3831383999204,55.99999999999991,6.216,1307.18079569994,,,,,,,,,,,,,,,,,,,,,,,,,,,,,,,,,,,,,,sub-014,47.8,46,48.3,COM3,2024-02-05_12h48.27.525,2024_RDpaindiscrimination_maintask,2023.2.3,59.99743211829064,2024-02-05 12h48.46.272767 -0500,
1,0,1,0,11,0,11,0,,,,,,,,,,,,,1313.3975562999258,,,,,,,,1313.3834008999402,1318.3810075999936,1318.3810145999305,1318.3974797999253,1330.381626199931,3,active,46.0,1330.381769599975,1335.5658753999742,26.00000000000012,5.165,1330.414422999951,,,,,,,,,,,,,,,,,,,,,,,,,,,,,,,,,,,,,,sub-014,47.8,46,48.3,COM3,2024-02-05_12h48.27.525,2024_RDpaindiscrimination_maintask,2023.2.3,59.99743211829064,2024-02-05 12h48.46.272767 -0500,
1,0,1,0,12,0,12,0,,,,,,,,,,,,,1335.5810732999817,,,,,,,,1335.5666368999518,1340.5645881999517,1340.564595200005,1340.5811288999394,1352.5651791999117,0,inactive,47.8,1352.5653211999452,1359.6678309999406,64.49999999999991,7.084,1352.5980205999222,,,,,,,,,,,,,,,,,,,,,,,,,,,,,,,,,,,,,,sub-014,47.8,46,48.3,COM3,2024-02-05_12h48.27.525,2024_RDpaindiscrimination_maintask,2023.2.3,59.99743211829064,2024-02-05 12h48.46.272767 -0500,
1,0,1,0,13,0,13,0,,,,,,,,,,,,,1359.6813706000103,,,,,,,,1359.6686102999374,1364.6649235999212,1364.664935800014,1364.6814111999702,1376.665371399955,1,active,46.0,1376.6655187999131,1382.4832858999725,23.999999999999986,5.799,1376.698223299929,,,,,,,,,,,,,,,,,,,,,,,,,,,,,,,,,,,,,,sub-014,47.8,46,48.3,COM3,2024-02-05_12h48.27.525,2024_RDpaindiscrimination_maintask,2023.2.3,59.99743211829064,2024-02-05 12h48.46.272767 -0500,
1,0,1,0,14,0,14,0,,,,,,,,,,,,,1382.4983706999337,,,,,,,,1382.4840928999474,1387.481853300007,1387.481860699947,1387.4983151999768,1399.4823174999328,2,inactive,47.8,1399.4824609999778,1404.9506845999276,58.49999999999987,5.449,1399.5151132999454,,,,,,,,,,,,,,,,,,,,,,,,,,,,,,,,,,,,,,sub-014,47.8,46,48.3,COM3,2024-02-05_12h48.27.525,2024_RDpaindiscrimination_maintask,2023.2.3,59.99743211829064,2024-02-05 12h48.46.272767 -0500,
1,0,1,0,15,0,15,0,,,,,,,,,,,,,1404.9652075999184,,,,,,,,1404.9514278999995,1409.9487460999517,1409.948753500008,1409.9652675999096,1421.9491971000098,3,inactive,47.8,1421.9493443999672,1429.6008307999,71.49999999999982,7.633,1421.9820441999473,,,,,,,,,,,,,,,,,,,,,,,,,,,,,,,,,,,,,,sub-014,47.8,46,48.3,COM3,2024-02-05_12h48.27.525,2024_RDpaindiscrimination_maintask,2023.2.3,59.99743211829064,2024-02-05 12h48.46.272767 -0500,
1,0,1,0,,,,,0,0,0,0,0,0,0,0,,,,,1443.9823524999665,,,,,,1442.2995704999194,1443.9659412999172,,,,,,0,active,47.8,1460.9664223999716,1464.8348424999276,67.00000000000001,3.85,,1429.6014264000114,1429.615513299941,1442.2992490999168,1443.9662346999394,1448.9658577999799,1448.965865099919,1448.982328300015,1460.9991836999543,1460.9664132999023,,,,,,,,,,,,,,,,,,,,,,,,,,,,,sub-014,47.8,46,48.3,COM3,2024-02-05_12h48.27.525,2024_RDpaindiscrimination_maintask,2023.2.3,59.99743211829064,2024-02-05 12h48.46.272767 -0500,
1,0,1,0,,,,,0,0,0,0,1,0,1,0,,,,,1464.8492689999985,,,,,,,,,,,,,1,inactive,47.8,1481.8332164000021,1488.1515507999575,69.0,6.3,,,,,1464.8355665999698,1469.8327686999692,1469.8327779999236,1469.8492820999818,1481.8660827999702,1481.8332082999405,,,,,,,,,,,,,,,,,,,,,,,,,,,,,sub-014,47.8,46,48.3,COM3,2024-02-05_12h48.27.525,2024_RDpaindiscrimination_maintask,2023.2.3,59.99743211829064,2024-02-05 12h48.46.272767 -0500,
1,0,1,0,,,,,0,0,0,0,,,,,0,0,0,0,1491.8328682999127,,,,,,,,,,,,,2,inactive,,,,,,,,,,,,,,,,1488.152047600015,1491.8164677999448,1491.8167767999694,1496.8164206999354,1496.8164288999978,1496.8329284999054,1504.8163836000022,1504.8163836000022,1507.783091399935,1507.816425499972,1507.816425499972,1507.7999493000098,3.44,5.36,344,536,8,1.2,0.75,pic-absent,1,m,0.6769611000781879,None,,,,,sub-014,47.8,46,48.3,COM3,2024-02-05_12h48.27.525,2024_RDpaindiscrimination_maintask,2023.2.3,59.99743211829064,2024-02-05 12h48.46.272767 -0500,
1,0,1,0,,,,,0,0,0,0,,,,,1,0,1,0,1507.816425499972,,,,,,,,,,,,,3,active,,,,,,,,,,,,,,,,,,1507.800498800003,1512.799968999927,1512.7999766999856,1512.8165017999709,1520.7999000999844,1520.7999000999844,1523.7666222999105,1523.799948800006,1523.799948800006,1523.7835039999336,4.47,4.33,447,433,8,1.2,0.75,pic-present,1,m,0.8742033999878913,None,,,,,sub-014,47.8,46,48.3,COM3,2024-02-05_12h48.27.525,2024_RDpaindiscrimination_maintask,2023.2.3,59.99743211829064,2024-02-05 12h48.46.272767 -0500,
1,0,1,0,,,,,0,0,0,0,,,,,2,0,2,0,1523.799948800006,,,,,,,,,,,,,0,inactive,,,,,,,,,,,,,,,,,,1523.7839982999722,1528.783515399904,1528.783523399965,1528.8000484999502,1536.7834171999712,1536.7834171999712,1539.7501345999772,1539.7834618999623,1539.7834618999623,1539.7669838999864,3.35,5.45,335,545,8,1.2,0.75,pic-present,1,m,1.2140044000698254,None,,,,,sub-014,47.8,46,48.3,COM3,2024-02-05_12h48.27.525,2024_RDpaindiscrimination_maintask,2023.2.3,59.99743211829064,2024-02-05 12h48.46.272767 -0500,
1,0,1,0,,,,,0,0,0,0,,,,,3,0,3,0,1539.7834618999623,,,,,,,,,,,,,1,inactive,,,,,,,,,,,,,,,,,,1539.7674848999595,1544.7670183998998,1544.7670253999531,1544.783540399978,1552.7669467999367,1552.7669467999367,1555.733649199945,1555.7669788999483,1555.7669788999483,1555.751443499932,4.29,4.51,429,451,8,1.2,0.75,pic-absent,0,n,2.3504405999556184,None,,,,,sub-014,47.8,46,48.3,COM3,2024-02-05_12h48.27.525,2024_RDpaindiscrimination_maintask,2023.2.3,59.99743211829064,2024-02-05 12h48.46.272767 -0500,
1,0,1,0,,,,,1,0,1,0,0,0,0,0,,,,,1558.8004121999256,,,,,,1555.7519458999159,1558.7839610999217,,,,,,2,inactive,47.8,1575.7839939999394,1580.3360094999662,60.499999999999865,4.533,,,,,1558.784272299963,1563.7839084999869,1563.7839160999283,1563.8004151999485,,1575.7839849999873,,,,,,,,,,,,,,,,,,,,,,,,,,,,,sub-014,47.8,46,48.3,COM3,2024-02-05_12h48.27.525,2024_RDpaindiscrimination_maintask,2023.2.3,59.99743211829064,2024-02-05 12h48.46.272767 -0500,
1,0,1,0,,,,,1,0,1,0,1,0,1,0,,,,,1580.3506873999722,,,,,,,,,,,,,3,active,47.8,1597.3347309000092,1601.504259899957,50.0,4.151,,,,,1580.3367336000083,1585.334170499933,1585.3341778999893,1585.35061329999,1597.3674682999263,1597.3347222999437,,,,,,,,,,,,,,,,,,,,,,,,,,,,,sub-014,47.8,46,48.3,COM3,2024-02-05_12h48.27.525,2024_RDpaindiscrimination_maintask,2023.2.3,59.99743211829064,2024-02-05 12h48.46.272767 -0500,
1,0,1,0,,,,,1,0,1,0,,,,,0,0,0,0,1604.2509111999534,,,,,,,,,,,,,0,active,,,,,,,,,,,,,,,,1601.504815399996,1604.2344821000006,1604.2348136999644,1609.2345606999006,1609.2345681999577,1609.2509037000127,1617.2343773999019,1617.2343773999019,1620.2010374999372,1620.2343697999604,1620.2343697999604,1620.2178829999175,4.48,4.32,448,432,8,1.2,0.75,pic-absent,1,m,1.0960934000322595,None,,,,,sub-014,47.8,46,48.3,COM3,2024-02-05_12h48.27.525,2024_RDpaindiscrimination_maintask,2023.2.3,59.99743211829064,2024-02-05 12h48.46.272767 -0500,
1,0,1,0,,,,,1,0,1,0,,,,,1,0,1,0,1620.2343697999604,,,,,,,,,,,,,1,inactive,,,,,,,,,,,,,,,,,,1620.2184243999654,1625.2179227999877,1625.2179302999284,1625.2344199999934,1633.2178547999356,1633.2178547999356,1636.1845472999848,1636.2179452999262,1636.2179452999262,1636.2014030999271,3.73,5.07,373,507,8,1.2,0.75,pic-present,1,m,0.8720014999853447,None,,,,,sub-014,47.8,46,48.3,COM3,2024-02-05_12h48.27.525,2024_RDpaindiscrimination_maintask,2023.2.3,59.99743211829064,2024-02-05 12h48.46.272767 -0500,
1,0,1,0,,,,,1,0,1,0,,,,,2,0,2,0,1636.2179452999262,,,,,,,,,,,,,2,active,,,,,,,,,,,,,,,,,,1636.2018717000028,1641.2014374999562,1641.2014450000133,1641.2179479999468,1649.2013733999338,1649.2013733999338,1652.1680762999458,1652.2014137000078,1652.2014137000078,1652.1849498999072,3.68,5.12,368,512,8,1.2,0.75,pic-present,1,m,1.0648703000042588,None,,,,,sub-014,47.8,46,48.3,COM3,2024-02-05_12h48.27.525,2024_RDpaindiscrimination_maintask,2023.2.3,59.99743211829064,2024-02-05 12h48.46.272767 -0500,
1,0,1,0,,,,,1,0,1,0,,,,,3,0,3,0,1652.2014137000078,,,,,,,,,,,,,3,active,,,,,,,,,,,,,,,,,,1652.185439899913,1657.1849651999073,1657.1849743999774,1657.2014616999077,1665.1848930999404,1665.1848930999404,1668.1515951999463,1668.184934699908,1668.184934699908,1668.168451000005,4.7,4.1,470,409,8,1.2,0.75,pic-absent,1,m,0.9769209999358281,None,,,,,sub-014,47.8,46,48.3,COM3,2024-02-05_12h48.27.525,2024_RDpaindiscrimination_maintask,2023.2.3,59.99743211829064,2024-02-05 12h48.46.272767 -0500,
1,0,1,0,,,,,2,0,2,0,0,0,0,0,,,,,1671.334989199997,,,,,,1668.168969899998,1671.3187084000092,,,,,,0,active,47.8,1688.3189615999581,1691.3208492000122,66.49999999999994,2.983,,,,,1671.3190484999213,1676.3187206999864,1676.3187280999264,1676.335048799985,1688.3519547999604,1688.3189516999992,,,,,,,,,,,,,,,,,,,,,,,,,,,,,sub-014,47.8,46,48.3,COM3,2024-02-05_12h48.27.525,2024_RDpaindiscrimination_maintask,2023.2.3,59.99743211829064,2024-02-05 12h48.46.272767 -0500,
1,0,1,0,,,,,2,0,2,0,1,0,1,0,,,,,1691.3353249999927,,,,,,,,,,,,,1,inactive,47.8,1708.3192784999264,1712.3542839000002,63.499999999999986,4.016,,,,,1691.3216050999472,1696.3188740999904,1696.318881999934,1696.335341900005,1708.352189199999,1708.3192703999812,,,,,,,,,,,,,,,,,,,,,,,,,,,,,sub-014,47.8,46,48.3,COM3,2024-02-05_12h48.27.525,2024_RDpaindiscrimination_maintask,2023.2.3,59.99743211829064,2024-02-05 12h48.46.272767 -0500,
1,0,1,0,,,,,2,0,2,0,,,,,0,0,0,0,1715.418853299925,,,,,,,,,,,,,2,inactive,,,,,,,,,,,,,,,,1712.3548027999932,1715.4024187999312,1715.402724799933,1720.4023701999104,1720.402378299972,1720.418909800006,1728.4022950999206,1728.4022950999206,1731.3690066999989,1731.4023250999162,1731.4023250999162,1731.3858424999053,3.36,5.44,336,544,8,1.2,0.75,pic-present,1,m,0.9073719000443816,None,,,,,sub-014,47.8,46,48.3,COM3,2024-02-05_12h48.27.525,2024_RDpaindiscrimination_maintask,2023.2.3,59.99743211829064,2024-02-05 12h48.46.272767 -0500,
1,0,1,0,,,,,2,0,2,0,,,,,1,0,1,0,1731.4023250999162,,,,,,,,,,,,,3,active,,,,,,,,,,,,,,,,,,1731.3863870999776,1736.38593879994,1736.385946399998,1736.4024104999844,1744.3859430999728,1744.3859430999728,1747.3524978999048,1747.3858562000096,1747.3858562000096,1747.369389600004,3.97,4.83,397,483,8,1.2,0.75,pic-absent,1,m,1.1565712000010535,None,,,,,sub-014,47.8,46,48.3,COM3,2024-02-05_12h48.27.525,2024_RDpaindiscrimination_maintask,2023.2.3,59.99743211829064,2024-02-05 12h48.46.272767 -0500,
1,0,1,0,,,,,2,0,2,0,,,,,2,0,2,0,1747.3858562000096,,,,,,,,,,,,,0,active,,,,,,,,,,,,,,,,,,1747.3698925999925,1752.3694411999313,1752.3694490999915,1752.3859535999363,1760.3693988999585,1760.3693988999585,1763.3361742999405,1763.3695008999202,1763.3695008999202,1763.3529635999585,4.06,4.74,405,474,8,1.2,0.75,pic-absent,1,m,0.8798766999971122,None,,,,,sub-014,47.8,46,48.3,COM3,2024-02-05_12h48.27.525,2024_RDpaindiscrimination_maintask,2023.2.3,59.99743211829064,2024-02-05 12h48.46.272767 -0500,
1,0,1,0,,,,,2,0,2,0,,,,,3,0,3,0,1763.3695008999202,,,,,,,,,,,,,1,inactive,,,,,,,,,,,,,,,,,,1763.3534464999102,1768.3529615999432,1768.3529695000034,1768.3694625999779,1776.3528867999557,1776.3528867999557,1779.3195984999184,1779.3529533999972,1779.3529533999972,1779.3364527999656,3.58,5.22,358,522,8,1.2,0.75,pic-present,1,m,1.3125976999290287,None,,,,,sub-014,47.8,46,48.3,COM3,2024-02-05_12h48.27.525,2024_RDpaindiscrimination_maintask,2023.2.3,59.99743211829064,2024-02-05 12h48.46.272767 -0500,
1,0,1,0,,,,,3,0,3,0,0,0,0,0,,,,,1781.8862953999778,,,,,,1779.336970299948,1781.8700633000117,,,,,,2,inactive,47.8,1798.870424099965,1802.1222740999656,64.49999999999991,3.234,,,,,1781.8703988000052,1786.8698903999757,1786.8698977999156,1786.8863282999955,1798.9031637000153,1798.8704155999003,,,,,,,,,,,,,,,,,,,,,,,,,,,,,sub-014,47.8,46,48.3,COM3,2024-02-05_12h48.27.525,2024_RDpaindiscrimination_maintask,2023.2.3,59.99743211829064,2024-02-05 12h48.46.272767 -0500,
1,0,1,0,,,,,3,0,3,0,1,0,1,0,,,,,1802.136571799987,,,,,,,,,,,,,3,active,47.8,1819.1205197999952,1825.1897849999368,64.49999999999991,6.051,,,,,1802.1230068999575,1807.120086699957,1807.1200942000141,1807.1365750000114,1819.1533985999413,1819.120511899935,,,,,,,,,,,,,,,,,,,,,,,,,,,,,sub-014,47.8,46,48.3,COM3,2024-02-05_12h48.27.525,2024_RDpaindiscrimination_maintask,2023.2.3,59.99743211829064,2024-02-05 12h48.46.272767 -0500,
1,0,1,0,,,,,3,0,3,0,,,,,0,0,0,0,1827.8034651000053,,,,,,,,,,,,,0,active,,,,,,,,,,,,,,,,1825.1903317999095,1827.7870654999278,1827.7873915999662,1832.787018199917,1832.7870259999763,1832.8035626999335,1840.7869826999959,1840.7869826999959,1843.7536543000024,1843.7869880999206,1843.7869880999206,1843.7705316999927,4.66,4.14,466,413,8,1.2,0.75,pic-present,1,m,0.8986968999961391,None,,,,,sub-014,47.8,46,48.3,COM3,2024-02-05_12h48.27.525,2024_RDpaindiscrimination_maintask,2023.2.3,59.99743211829064,2024-02-05 12h48.46.272767 -0500,
1,0,1,0,,,,,3,0,3,0,,,,,1,0,1,0,1843.7869880999206,,,,,,,,,,,,,1,inactive,,,,,,,,,,,,,,,,,,1843.7710920999525,1848.7705284999683,1848.7705362999113,1848.7870406999718,1856.7706161999376,1856.7706161999376,1859.737175499904,1859.7705045999028,1859.7705045999028,1859.7540305999573,3.47,5.33,347,533,8,1.2,0.75,pic-absent,0,n,1.4722873999271542,None,,,,,sub-014,47.8,46,48.3,COM3,2024-02-05_12h48.27.525,2024_RDpaindiscrimination_maintask,2023.2.3,59.99743211829064,2024-02-05 12h48.46.272767 -0500,
1,0,1,0,,,,,3,0,3,0,,,,,2,0,2,0,1859.7705045999028,,,,,,,,,,,,,2,inactive,,,,,,,,,,,,,,,,,,1859.7545153999235,1864.7541684999596,1864.7541756000137,1864.7706764999311,1872.754117699922,1872.754117699922,1875.7207807999803,1875.7541510999436,1875.7541510999436,1875.7376589999767,3.97,4.83,397,483,8,1.2,0.75,pic-absent,1,m,1.4354561000363901,None,,,,,sub-014,47.8,46,48.3,COM3,2024-02-05_12h48.27.525,2024_RDpaindiscrimination_maintask,2023.2.3,59.99743211829064,2024-02-05 12h48.46.272767 -0500,
1,0,1,0,,,,,3,0,3,0,,,,,3,0,3,0,1875.7541510999436,,,,,,,,,,,,,3,active,,,,,,,,,,,,,,,,,,1875.7381076999009,1880.7376475000056,1880.7376555999508,1880.7542059000116,1888.7376203999156,1888.7376203999156,1891.7043318999931,1891.7375948999543,1891.7375948999543,1891.7211478999816,4.52,4.28,451,428,8,1.2,0.75,pic-present,1,m,1.0648935999488458,None,,,,,sub-014,47.8,46,48.3,COM3,2024-02-05_12h48.27.525,2024_RDpaindiscrimination_maintask,2023.2.3,59.99743211829064,2024-02-05 12h48.46.272767 -0500,
,,,,,,,,,,,,,,,,,,,,,,,,,,,,,,,,,,,,,,,,,,,,,,,,,,,,,,,,,,,,,,,,,,,,,,,,,,1891.7215634000022,1894.337912799907,1894.337933999952,1904.338042599964,,,,,,,,,,,
