trials.thisRepN,trials.thisTrialN,trials.thisN,trials.thisIndex,loop_test.thisRepN,loop_test.thisTrialN,loop_test.thisN,loop_test.thisIndex,loop_eval_discri.thisRepN,loop_eval_discri.thisTrialN,loop_eval_discri.thisN,loop_eval_discri.thisIndex,loop_eval.thisRepN,loop_eval.thisTrialN,loop_eval.thisN,loop_eval.thisIndex,loop_discri.thisRepN,loop_discri.thisTrialN,loop_discri.thisN,loop_discri.thisIndex,thisRow.t,notes,Set_up.started,Set_up.stopped,electrode_check.started,electrode_check.stopped,instructions_eval.started,instructions_eval.stopped,pause_5_test.started,pause_5_test.stopped,Phase_Test.started,thermode_locali.started,thermode_locali.stopped,Phase_Test.stopped,loca_thermode,condition,temp_trial_sent,eval_douleur.started,eval_douleur.stopped,ratingScale.response,ratingScale.rt,Fin_test.started,text.started,Fin_test.stopped,pause_5_EVA.started,pause_5_EVA.stopped,tâche_EVA.started,thermode_locali_EVA.started,thermode_locali_EVA.stopped,tâche_EVA.stopped,instructions_discrim.started,instructions_discrim.stopped,pause_5_pic.started,pause_5_pic.stopped,tâche_PIC.started,thermode_locali_pic.started,percu_or.started,responser.started,thermode_locali_pic.stopped,percu_or.stopped,responser.stopped,tâche_PIC.stopped,dur_plateau1,dur_plateau2,dur_plateau1_sent,dur_plateau2_sent,start_plateau_2_resp,dur_pic,dur_rise,pic_presence,pic_response,discrimin_resp.keys,discrimin_resp.rt,discrimin_resp.duration,break_entre_bloc.started,break_entre_bloc.stopped,merci.started,merci.stopped,participant,temp_flat,temp_active,temp_pic_set,com_thermode,date,expName,psychopyVersion,frameRate,expStart,
0,0,0,0,0,0,0,0,,,,,,,,,,,,,170.60794799998985,,0.006328699993900955,162.49164169997675,162.49200729999575,169.74168179999106,169.7416891999892,170.5916185999813,170.59191419999115,175.5915973999945,175.59160429998883,175.60806619998766,187.62479050000547,187.5920744999894,0,inactive,49.4,187.59231499998714,191.5103259999887,17.50000000000021,3.894,,,,,,,,,,,,,,,,,,,,,,,,,,,,,,,,,,,,,,sub-047,49.4,48.2,50.3,COM3,2024-07-11_09h40.08.005,2024_RDpaindiscrimination_maintask,2023.2.3,59.99487643695273,2024-07-11 09h40.29.994669 -0400,
0,0,0,0,1,0,1,0,,,,,,,,,,,,,191.5248568999814,,,,,,,,191.5112403999956,196.50856570000178,196.50857179999002,196.52498560000095,208.54179759998806,208.50894629998947,1,active,48.2,208.50909849998425,210.94448700000066,11.500000000000028,2.415,,,,,,,,,,,,,,,,,,,,,,,,,,,,,,,,,,,,,,sub-047,49.4,48.2,50.3,COM3,2024-07-11_09h40.08.005,2024_RDpaindiscrimination_maintask,2023.2.3,59.99487643695273,2024-07-11 09h40.29.994669 -0400,
0,0,0,0,2,0,2,0,,,,,,,,,,,,,210.95851999998558,,,,,,,,210.94529639999382,215.94208629999775,215.94209259998752,215.95851619998575,227.97529529998428,227.9424493999977,2,active,48.2,227.94259849999798,232.32800280000083,0.0,4.366,,,,,,,,,,,,,,,,,,,,,,,,,,,,,,,,,,,,,,sub-047,49.4,48.2,50.3,COM3,2024-07-11_09h40.08.005,2024_RDpaindiscrimination_maintask,2023.2.3,59.99487643695273,2024-07-11 09h40.29.994669 -0400,
0,0,0,0,3,0,3,0,,,,,,,,,,,,,232.34203709999565,,,,,,,,232.3288082999934,237.32557620000443,237.32558289999724,237.34209279998322,249.35891509999055,249.32603209998342,3,inactive,49.4,249.32618259999435,253.09500800000387,16.00000000000021,3.749,,,,,,,,,,,,,,,,,,,,,,,,,,,,,,,,,,,,,,sub-047,49.4,48.2,50.3,COM3,2024-07-11_09h40.08.005,2024_RDpaindiscrimination_maintask,2023.2.3,59.99487643695273,2024-07-11 09h40.29.994669 -0400,
0,0,0,0,4,0,4,0,,,,,,,,,,,,,253.10889209999004,,,,,,,,253.09580680000363,258.09243679998326,258.0924435000052,258.10893759998726,270.1257668999897,270.09287150000455,0,inactive,49.4,270.0930195999972,271.527505999984,30.0,1.414,,,,,,,,,,,,,,,,,,,,,,,,,,,,,,,,,,,,,,sub-047,49.4,48.2,50.3,COM3,2024-07-11_09h40.08.005,2024_RDpaindiscrimination_maintask,2023.2.3,59.99487643695273,2024-07-11 09h40.29.994669 -0400,
0,0,0,0,5,0,5,0,,,,,,,,,,,,,271.54244209997705,,,,,,,,271.5283770999813,276.5260645999806,276.52607089999947,276.5424411999993,288.5592756999831,288.5264792999951,1,active,48.2,288.52662879999843,291.3956700999988,11.5000000000001,2.849,,,,,,,,,,,,,,,,,,,,,,,,,,,,,,,,,,,,,,sub-047,49.4,48.2,50.3,COM3,2024-07-11_09h40.08.005,2024_RDpaindiscrimination_maintask,2023.2.3,59.99487643695273,2024-07-11 09h40.29.994669 -0400,
0,0,0,0,6,0,6,0,,,,,,,,,,,,,291.4093034999969,,,,,,,,291.39648299998953,296.3928331999923,296.39283979998436,296.4093601999921,308.4261387999868,308.3932851999998,2,inactive,49.4,308.39343589998316,311.0776136999775,4.000000000000022,2.664,,,,,,,,,,,,,,,,,,,,,,,,,,,,,,,,,,,,,,sub-047,49.4,48.2,50.3,COM3,2024-07-11_09h40.08.005,2024_RDpaindiscrimination_maintask,2023.2.3,59.99487643695273,2024-07-11 09h40.29.994669 -0400,
0,0,0,0,7,0,7,0,,,,,,,,,,,,,311.0928519000008,,,,,,,,311.0784105999919,316.0763978000032,316.0764043999952,316.092906099977,328.10956969999825,328.07675359997666,3,active,48.2,328.0769037999853,332.46130890000495,0.0,4.365,,,,,,,,,,,,,,,,,,,,,,,,,,,,,,,,,,,,,,sub-047,49.4,48.2,50.3,COM3,2024-07-11_09h40.08.005,2024_RDpaindiscrimination_maintask,2023.2.3,59.99487643695273,2024-07-11 09h40.29.994669 -0400,
0,0,0,0,8,0,8,0,,,,,,,,,,,,,332.47640270000556,,,,,,,,332.46212489999016,337.4599620999943,337.4599737999961,337.4764579999901,349.493235300004,349.46036840000306,0,active,48.2,349.46052309998777,351.5280344999919,8.000000000000025,2.047,,,,,,,,,,,,,,,,,,,,,,,,,,,,,,,,,,,,,,sub-047,49.4,48.2,50.3,COM3,2024-07-11_09h40.08.005,2024_RDpaindiscrimination_maintask,2023.2.3,59.99487643695273,2024-07-11 09h40.29.994669 -0400,
0,0,0,0,9,0,9,0,,,,,,,,,,,,,351.543188599986,,,,,,,,351.5288585999806,356.5267709000036,356.5267778999987,356.5432731999899,368.5601049999823,368.52722619997803,1,inactive,49.4,368.5274063999823,372.6292482999852,3.000000000000067,4.081,,,,,,,,,,,,,,,,,,,,,,,,,,,,,,,,,,,,,,sub-047,49.4,48.2,50.3,COM3,2024-07-11_09h40.08.005,2024_RDpaindiscrimination_maintask,2023.2.3,59.99487643695273,2024-07-11 09h40.29.994669 -0400,
0,0,0,0,10,0,10,0,,,,,,,,,,,,,372.6434726000007,,,,,,,,372.630015200004,377.62707769998815,377.62708439998096,377.64354379998986,389.6603538999916,389.6273986999877,2,inactive,49.4,389.6275465999788,391.81238839999423,0.999999999999988,2.165,,,,,,,,,,,,,,,,,,,,,,,,,,,,,,,,,,,,,,sub-047,49.4,48.2,50.3,COM3,2024-07-11_09h40.08.005,2024_RDpaindiscrimination_maintask,2023.2.3,59.99487643695273,2024-07-11 09h40.29.994669 -0400,
0,0,0,0,11,0,11,0,,,,,,,,,,,,,391.8270660999988,,,,,,,,391.813203800004,396.81044559998554,396.8104524999799,396.8269356999954,408.84386110000196,408.8109126999916,3,active,48.2,408.81105669998215,412.9961423999921,0.0,4.165,,,,,,,,,,,,,,,,,,,,,,,,,,,,,,,,,,,,,,sub-047,49.4,48.2,50.3,COM3,2024-07-11_09h40.08.005,2024_RDpaindiscrimination_maintask,2023.2.3,59.99487643695273,2024-07-11 09h40.29.994669 -0400,
0,0,0,0,12,0,12,0,,,,,,,,,,,,,413.01049169999897,,,,,,,,412.9965450000018,417.99415759998374,417.9941682999779,418.010563799995,430.0773661999847,429.9944420999964,0,active,48.2,429.9945889999799,431.9471964999975,1.999999999999988,1.883,,,,,,,,,,,,,,,,,,,,,,,,,,,,,,,,,,,,,,sub-047,49.4,48.2,50.3,COM3,2024-07-11_09h40.08.005,2024_RDpaindiscrimination_maintask,2023.2.3,59.99487643695273,2024-07-11 09h40.29.994669 -0400,
0,0,0,0,13,0,13,0,,,,,,,,,,,,,431.960699999996,,,,,,,,431.9480138999934,436.9442477999837,436.94425469997805,436.9607430000033,448.9775424999825,448.94466989999637,1,inactive,49.4,448.94481950000045,453.1793691999919,1.000000000000165,4.215,,,,,,,,,,,,,,,,,,,,,,,,,,,,,,,,,,,,,,sub-047,49.4,48.2,50.3,COM3,2024-07-11_09h40.08.005,2024_RDpaindiscrimination_maintask,2023.2.3,59.99487643695273,2024-07-11 09h40.29.994669 -0400,
0,0,0,0,14,0,14,0,,,,,,,,,,,,,453.1942604999931,,,,,,,,453.18023529998027,458.17779039999004,458.17779659997905,458.1943958000047,470.2110932999931,470.1781568999868,2,active,48.2,470.17830989998765,474.04582209998625,0.0,3.848,,,,,,,,,,,,,,,,,,,,,,,,,,,,,,,,,,,,,,sub-047,49.4,48.2,50.3,COM3,2024-07-11_09h40.08.005,2024_RDpaindiscrimination_maintask,2023.2.3,59.99487643695273,2024-07-11 09h40.29.994669 -0400,
0,0,0,0,15,0,15,0,,,,,,,,,,,,,474.06112810000195,,,,,,,,474.0465988999931,479.04468399999314,479.0446905999852,479.06114730000263,491.0779728000052,491.0450869999768,3,inactive,49.4,491.0452345999947,493.0144896999991,21.000000000000103,1.949,,,,,,,,,,,,,,,,,,,,,,,,,,,,,,,,,,,,,,sub-047,49.4,48.2,50.3,COM3,2024-07-11_09h40.08.005,2024_RDpaindiscrimination_maintask,2023.2.3,59.99487643695273,2024-07-11 09h40.29.994669 -0400,
0,0,0,0,,,,,0,0,0,0,0,0,0,0,,,,,519.2781863999844,,,,,,518.8121813999896,519.2619290000002,,,,,,,0,inactive,49.4,536.2621832999866,539.0985370999842,50.4999999999999,2.816,493.01512289998936,493.027983899985,518.8118431000039,519.2622197000019,524.2619245999958,524.2619314999902,524.2783131999895,536.2950265999825,536.2621746999794,,,,,,,,,,,,,,,,,,,,,,,,,,,,,sub-047,49.4,48.2,50.3,COM3,2024-07-11_09h40.08.005,2024_RDpaindiscrimination_maintask,2023.2.3,59.99487643695273,2024-07-11 09h40.29.994669 -0400,
0,0,0,0,,,,,0,0,0,0,1,0,1,0,,,,,539.1118476999982,,,,,,,,,,,,,,1,active,49.4,556.0956956000009,559.7642844999791,7.500000000000096,3.649,,,,539.0993457000004,544.0953681999817,544.0953751999768,544.1118372999772,556.1286701999779,556.0956874999974,,,,,,,,,,,,,,,,,,,,,,,,,,,,,sub-047,49.4,48.2,50.3,COM3,2024-07-11_09h40.08.005,2024_RDpaindiscrimination_maintask,2023.2.3,59.99487643695273,2024-07-11 09h40.29.994669 -0400,
0,0,0,0,,,,,0,0,0,0,,,,,0,0,0,0,561.0121094999777,,,,,,,,,,,,,,2,active,,,,,,,,,,,,,,,559.7651001999911,560.9958330999943,560.9961623999989,566.0006113999989,566.0006186999963,566.0119596000004,573.9955182999838,573.9955182999838,576.9621439999901,576.9954805999878,576.9954805999878,576.9790114999923,4.26,4.54,426,454,8,1.2,0.75,pic-absent,1,n,0.8963092000049073,None,,,,,sub-047,49.4,48.2,50.3,COM3,2024-07-11_09h40.08.005,2024_RDpaindiscrimination_maintask,2023.2.3,59.99487643695273,2024-07-11 09h40.29.994669 -0400,
0,0,0,0,,,,,0,0,0,0,,,,,1,0,1,0,576.9954805999878,,,,,,,,,,,,,,3,active,,,,,,,,,,,,,,,,,576.9796543999983,581.9790275999985,581.9790355000005,581.995525699982,589.9790108999878,589.9790108999878,592.9457055999956,592.9790943999833,592.9790943999833,592.9625685999927,4.51,4.29,451,429,8,1.2,0.75,pic-present,0,m,0.5283827000239398,None,,,,,sub-047,49.4,48.2,50.3,COM3,2024-07-11_09h40.08.005,2024_RDpaindiscrimination_maintask,2023.2.3,59.99487643695273,2024-07-11 09h40.29.994669 -0400,
0,0,0,0,,,,,0,0,0,0,,,,,2,0,2,0,592.9790943999833,,,,,,,,,,,,,,0,inactive,,,,,,,,,,,,,,,,,592.9630911999848,597.9625760999916,597.9625831999874,597.9790310999961,605.962561399996,605.962561399996,608.9291616999835,608.9625472000043,608.9625472000043,608.9460662000056,3.28,5.52,328,552,8,1.2,0.75,pic-absent,1,n,1.0083020000020042,None,,,,,sub-047,49.4,48.2,50.3,COM3,2024-07-11_09h40.08.005,2024_RDpaindiscrimination_maintask,2023.2.3,59.99487643695273,2024-07-11 09h40.29.994669 -0400,
0,0,0,0,,,,,0,0,0,0,,,,,3,0,3,0,608.9625472000043,,,,,,,,,,,,,,1,inactive,,,,,,,,,,,,,,,,,608.9465982999827,613.9460515999817,613.9460585000052,613.9625287999806,621.9460005000001,621.9460005000001,624.9126369000005,624.9459713999822,624.9459713999822,624.9295111999963,3.66,5.14,366,514,8,1.2,0.75,pic-absent,1,n,1.0648772999993525,None,,,,,sub-047,49.4,48.2,50.3,COM3,2024-07-11_09h40.08.005,2024_RDpaindiscrimination_maintask,2023.2.3,59.99487643695273,2024-07-11 09h40.29.994669 -0400,
0,0,0,0,,,,,1,0,1,0,0,0,0,0,,,,,626.0461022999953,,,,,,624.9300170999777,626.0295688000042,,,,,,,2,active,49.4,643.0299879999948,645.1143152999866,10.500000000000027,2.064,,,,626.0298501999932,631.0296155999822,631.0296218000003,631.0460254999925,643.0628781999985,643.0299797999905,,,,,,,,,,,,,,,,,,,,,,,,,,,,,sub-047,49.4,48.2,50.3,COM3,2024-07-11_09h40.08.005,2024_RDpaindiscrimination_maintask,2023.2.3,59.99487643695273,2024-07-11 09h40.29.994669 -0400,
0,0,0,0,,,,,1,0,1,0,1,0,1,0,,,,,645.1295621999889,,,,,,,,,,,,,,3,inactive,49.4,662.1133322999813,666.1653359000047,2.5000000000002003,4.032,,,,645.1152681999956,650.1130905000027,650.1130974999978,650.129492499982,662.1464050999784,662.1133248999831,,,,,,,,,,,,,,,,,,,,,,,,,,,,,sub-047,49.4,48.2,50.3,COM3,2024-07-11_09h40.08.005,2024_RDpaindiscrimination_maintask,2023.2.3,59.99487643695273,2024-07-11 09h40.29.994669 -0400,
0,0,0,0,,,,,1,0,1,0,,,,,0,0,0,0,666.7464766000048,,,,,,,,,,,,,,0,active,,,,,,,,,,,,,,,666.1659314999997,666.7302012,666.7305213999934,671.7299301000021,671.729937199998,671.74648229999,679.7298356999818,679.7298356999818,682.6965823999781,682.7298786999891,682.7298786999891,682.7133829999948,4.36,4.44,436,444,8,1.2,0.75,pic-present,1,n,0.9613487999886274,None,,,,,sub-047,49.4,48.2,50.3,COM3,2024-07-11_09h40.08.005,2024_RDpaindiscrimination_maintask,2023.2.3,59.99487643695273,2024-07-11 09h40.29.994669 -0400,
0,0,0,0,,,,,1,0,1,0,,,,,1,0,1,0,682.7298786999891,,,,,,,,,,,,,,1,inactive,,,,,,,,,,,,,,,,,682.7139511999849,687.7134040999808,687.7134109000035,687.7299208999902,695.7134227999777,695.7134227999777,698.6800319000031,698.7134320999903,698.7134320999903,698.6969795000041,3.46,5.34,346,534,8,1.2,0.75,pic-absent,1,n,0.8294689999893308,None,,,,,sub-047,49.4,48.2,50.3,COM3,2024-07-11_09h40.08.005,2024_RDpaindiscrimination_maintask,2023.2.3,59.99487643695273,2024-07-11 09h40.29.994669 -0400,
0,0,0,0,,,,,1,0,1,0,,,,,2,0,2,0,698.7134320999903,,,,,,,,,,,,,,2,inactive,,,,,,,,,,,,,,,,,698.6975298000034,703.6970412999799,703.6970485999773,703.713488599984,711.6969981000002,711.6969981000002,714.6636513999838,714.6969793000026,714.6969793000026,714.6805070999835,4.67,4.13,467,413,8,1.2,0.75,pic-present,0,m,0.7419118999969214,None,,,,,sub-047,49.4,48.2,50.3,COM3,2024-07-11_09h40.08.005,2024_RDpaindiscrimination_maintask,2023.2.3,59.99487643695273,2024-07-11 09h40.29.994669 -0400,
0,0,0,0,,,,,1,0,1,0,,,,,3,0,3,0,714.6969793000026,,,,,,,,,,,,,,3,active,,,,,,,,,,,,,,,,,714.6810495999816,719.6805329000053,719.6805396999989,719.6970408999769,727.6804386999866,727.6804386999866,730.6470550999802,730.6804482000007,730.6804482000007,730.6639109999815,3.65,5.15,365,515,8,1.2,0.75,pic-present,0,m,0.7069276999973226,None,,,,,sub-047,49.4,48.2,50.3,COM3,2024-07-11_09h40.08.005,2024_RDpaindiscrimination_maintask,2023.2.3,59.99487643695273,2024-07-11 09h40.29.994669 -0400,
0,0,0,0,,,,,2,0,2,0,0,0,0,0,,,,,731.5470762999903,,,,,,730.6644640000013,731.530665600003,,,,,,,0,inactive,49.4,748.5311209999782,750.8988853000046,31.5000000000001,2.348,,,,731.5309731999878,736.5307513999869,736.5307582999812,736.5472422000021,748.563989199989,748.5311122999992,,,,,,,,,,,,,,,,,,,,,,,,,,,,,sub-047,49.4,48.2,50.3,COM3,2024-07-11_09h40.08.005,2024_RDpaindiscrimination_maintask,2023.2.3,59.99487643695273,2024-07-11 09h40.29.994669 -0400,
0,0,0,0,,,,,2,0,2,0,1,0,1,0,,,,,750.9139962999907,,,,,,,,,,,,,,1,active,49.4,767.8979834999773,770.1322331999836,5.500000000000094,2.214,,,,750.899709099991,755.8975713999826,755.8975782999769,755.914071999985,767.9307988999935,767.8979754000029,,,,,,,,,,,,,,,,,,,,,,,,,,,,,sub-047,49.4,48.2,50.3,COM3,2024-07-11_09h40.08.005,2024_RDpaindiscrimination_maintask,2023.2.3,59.99487643695273,2024-07-11 09h40.29.994669 -0400,
0,0,0,0,,,,,2,0,2,0,,,,,0,0,0,0,770.5641953999875,,,,,,,,,,,,,,2,inactive,,,,,,,,,,,,,,,770.1327918999887,770.547889199981,770.5481924999913,775.5477468000026,775.5477532999939,775.5642217999848,783.5476917999913,783.5476917999913,786.5144817999972,786.5477537999977,786.5477537999977,786.5312287999841,3.96,4.84,396,484,8,1.2,0.75,pic-absent,0,m,0.6390271999989636,None,,,,,sub-047,49.4,48.2,50.3,COM3,2024-07-11_09h40.08.005,2024_RDpaindiscrimination_maintask,2023.2.3,59.99487643695273,2024-07-11 09h40.29.994669 -0400,
0,0,0,0,,,,,2,0,2,0,,,,,1,0,1,0,786.5477537999977,,,,,,,,,,,,,,3,inactive,,,,,,,,,,,,,,,,,786.5318139999872,791.5312380999967,791.531244999991,791.5477154999971,799.5311972999771,799.5311972999771,802.4978783999977,802.5311882999958,802.5311882999958,802.5146961999999,3.33,5.47,333,547,8,1.2,0.75,pic-present,1,n,0.7879508000041824,None,,,,,sub-047,49.4,48.2,50.3,COM3,2024-07-11_09h40.08.005,2024_RDpaindiscrimination_maintask,2023.2.3,59.99487643695273,2024-07-11 09h40.29.994669 -0400,
0,0,0,0,,,,,2,0,2,0,,,,,2,0,2,0,802.5311882999958,,,,,,,,,,,,,,0,active,,,,,,,,,,,,,,,,,802.5152291999839,807.5148647000024,807.5148707999906,807.5312804999994,815.5146951999923,815.5146951999923,818.4813499999873,818.5147290999885,818.5147290999885,818.4982009999803,4.54,4.26,454,426,8,1.2,0.75,pic-absent,1,n,0.5600827000162099,None,,,,,sub-047,49.4,48.2,50.3,COM3,2024-07-11_09h40.08.005,2024_RDpaindiscrimination_maintask,2023.2.3,59.99487643695273,2024-07-11 09h40.29.994669 -0400,
0,0,0,0,,,,,2,0,2,0,,,,,3,0,3,0,818.5147290999885,,,,,,,,,,,,,,1,active,,,,,,,,,,,,,,,,,818.4987050000054,823.4982329999912,823.498239699984,823.5146482999844,831.49819079999,831.49819079999,834.4648706000007,834.498148499988,834.498148499988,834.4817116000049,3.89,4.91,389,491,8,1.2,0.75,pic-absent,0,m,0.6651519000006374,None,,,,,sub-047,49.4,48.2,50.3,COM3,2024-07-11_09h40.08.005,2024_RDpaindiscrimination_maintask,2023.2.3,59.99487643695273,2024-07-11 09h40.29.994669 -0400,
0,0,0,0,,,,,3,0,3,0,0,0,0,0,,,,,835.6482127000054,,,,,,834.4822121000034,835.6318016999867,,,,,,,2,active,49.4,852.6322365999804,856.9664964999829,4.500000000000067,4.315,,,,835.6320994999842,840.6317514999828,840.6317590999824,840.648243899981,852.6650616999832,852.632228100003,,,,,,,,,,,,,,,,,,,,,,,,,,,,,sub-047,49.4,48.2,50.3,COM3,2024-07-11_09h40.08.005,2024_RDpaindiscrimination_maintask,2023.2.3,59.99487643695273,2024-07-11 09h40.29.994669 -0400,
0,0,0,0,,,,,3,0,3,0,1,0,1,0,,,,,856.9818497999804,,,,,,,,,,,,,,3,inactive,49.4,873.9656806999992,875.8171541999909,0.0,1.827,,,,856.9672622999933,861.9654272999906,861.9654342999856,861.9818405999977,873.9985686999862,873.9656716999889,,,,,,,,,,,,,,,,,,,,,,,,,,,,,sub-047,49.4,48.2,50.3,COM3,2024-07-11_09h40.08.005,2024_RDpaindiscrimination_maintask,2023.2.3,59.99487643695273,2024-07-11 09h40.29.994669 -0400,
0,0,0,0,,,,,3,0,3,0,,,,,0,0,0,0,876.265272699995,,,,,,,,,,,,,,0,inactive,,,,,,,,,,,,,,,875.8177446000045,876.2489935999911,876.2493199000019,881.2487935999816,881.2488007999782,881.2653180999914,889.2487925000023,889.2487925000023,892.2155109999876,892.248812899983,892.248812899983,892.2322920000006,3.77,5.03,377,503,8,1.2,0.75,pic-present,0,m,1.082299100002274,None,,,,,sub-047,49.4,48.2,50.3,COM3,2024-07-11_09h40.08.005,2024_RDpaindiscrimination_maintask,2023.2.3,59.99487643695273,2024-07-11 09h40.29.994669 -0400,
0,0,0,0,,,,,3,0,3,0,,,,,1,0,1,0,892.248812899983,,,,,,,,,,,,,,1,active,,,,,,,,,,,,,,,,,892.2328213999863,897.2322692000016,897.2322760999959,897.2487800999952,905.2322506000055,905.2322506000055,908.1988329000014,908.2321864999831,908.2321864999831,908.2157110999979,4.34,4.46,434,446,8,1.2,0.75,pic-absent,1,n,0.5749369999975897,None,,,,,sub-047,49.4,48.2,50.3,COM3,2024-07-11_09h40.08.005,2024_RDpaindiscrimination_maintask,2023.2.3,59.99487643695273,2024-07-11 09h40.29.994669 -0400,
0,0,0,0,,,,,3,0,3,0,,,,,2,0,2,0,908.2321864999831,,,,,,,,,,,,,,2,active,,,,,,,,,,,,,,,,,908.2161833999853,913.2159027000016,913.2159100999997,913.2323226000008,921.2157448999933,921.2157448999933,924.1823951999831,924.2158149000024,924.2158149000024,924.199246299977,3.57,5.23,357,523,8,1.2,0.75,pic-present,1,n,1.0066837999911513,None,,,,,sub-047,49.4,48.2,50.3,COM3,2024-07-11_09h40.08.005,2024_RDpaindiscrimination_maintask,2023.2.3,59.99487643695273,2024-07-11 09h40.29.994669 -0400,
0,0,0,0,,,,,3,0,3,0,,,,,3,0,3,0,924.2158149000024,,,,,,,,,,,,,,3,inactive,,,,,,,,,,,,,,,,,924.1997491999937,929.1992641999968,929.1992710999912,929.2157759999973,937.1991896999825,937.1991896999825,940.1658936000022,940.1991578000016,940.1991578000016,940.1827391999832,3.71,5.09,371,509,8,1.2,0.75,pic-present,0,m,0.9670629000174813,None,,,,,sub-047,49.4,48.2,50.3,COM3,2024-07-11_09h40.08.005,2024_RDpaindiscrimination_maintask,2023.2.3,59.99487643695273,2024-07-11 09h40.29.994669 -0400,
1,0,1,0,0,0,0,0,,,,,,,,,,,,,1010.4833154999942,,,,1005.2005045999831,1006.7336410999997,1006.7336491000024,1010.4668908999884,1010.467181199987,1015.4668720999907,1015.466878599982,1015.4832997999911,1027.500080400001,1027.46730009999,0,inactive,49.4,1027.4675368999888,1031.452305099985,4.500000000000067,3.961,,,,,,,,,,,,,,,,,,,,,,,,,,,,,,,,,,940.1832159000041,1005.2003722999943,,,sub-047,49.4,48.2,50.3,COM3,2024-07-11_09h40.08.005,2024_RDpaindiscrimination_maintask,2023.2.3,59.99487643695273,2024-07-11 09h40.29.994669 -0400,
1,0,1,0,1,0,1,0,,,,,,,,,,,,,1031.4668726999953,,,,,,,,1031.4532474000007,1036.4504301999987,1036.4504369999922,1036.4669224999961,1048.4837488000048,1048.4508318000007,1,active,48.2,1048.450985399977,1050.452798399987,0.0,1.982,,,,,,,,,,,,,,,,,,,,,,,,,,,,,,,,,,,,,,sub-047,49.4,48.2,50.3,COM3,2024-07-11_09h40.08.005,2024_RDpaindiscrimination_maintask,2023.2.3,59.99487643695273,2024-07-11 09h40.29.994669 -0400,
1,0,1,0,2,0,2,0,,,,,,,,,,,,,1050.4671095999947,,,,,,,,1050.4536325999943,1055.4506665999943,1055.4506729999848,1055.467165799986,1067.4839476000052,1067.4510924999777,2,active,48.2,1067.4512451000046,1070.202140999987,9.00000000000006,2.731,,,,,,,,,,,,,,,,,,,,,,,,,,,,,,,,,,,,,,sub-047,49.4,48.2,50.3,COM3,2024-07-11_09h40.08.005,2024_RDpaindiscrimination_maintask,2023.2.3,59.99487643695273,2024-07-11 09h40.29.994669 -0400,
1,0,1,0,3,0,3,0,,,,,,,,,,,,,1070.2174108999898,,,,,,,,1070.2029358999862,1075.2007742999995,1075.200781099993,1075.2172850999923,1087.2340683999937,1087.2012057999964,3,inactive,49.4,1087.2013544999936,1090.0702481000044,0.0,2.849,,,,,,,,,,,,,,,,,,,,,,,,,,,,,,,,,,,,,,sub-047,49.4,48.2,50.3,COM3,2024-07-11_09h40.08.005,2024_RDpaindiscrimination_maintask,2023.2.3,59.99487643695273,2024-07-11 09h40.29.994669 -0400,
1,0,1,0,4,0,4,0,,,,,,,,,,,,,1090.0842739999935,,,,,,,,1090.0710165999772,1095.067721600004,1095.0677296999784,1095.0842135999992,1107.1010435999779,1107.0681558999931,0,active,48.2,1107.068306799978,1109.5695308999857,5.500000000000059,2.481,,,,,,,,,,,,,,,,,,,,,,,,,,,,,,,,,,,,,,sub-047,49.4,48.2,50.3,COM3,2024-07-11_09h40.08.005,2024_RDpaindiscrimination_maintask,2023.2.3,59.99487643695273,2024-07-11 09h40.29.994669 -0400,
1,0,1,0,5,0,5,0,,,,,,,,,,,,,1109.5843746000028,,,,,,,,1109.5703485999838,1114.5680237000051,1114.568029999995,1114.5844815000019,1126.6012123999826,1126.5683804999862,1,inactive,49.4,1126.5685323999787,1128.720210999978,4.999999999999988,2.131,,,,,,,,,,,,,,,,,,,,,,,,,,,,,,,,,,,,,,sub-047,49.4,48.2,50.3,COM3,2024-07-11_09h40.08.005,2024_RDpaindiscrimination_maintask,2023.2.3,59.99487643695273,2024-07-11 09h40.29.994669 -0400,
1,0,1,0,6,0,6,0,,,,,,,,,,,,,1128.7345678999845,,,,,,,,1128.721083899989,1133.718176399998,1133.718182599987,1133.7344908999803,1145.7514102999994,1145.7185708000034,2,inactive,49.4,1145.7187311000016,1147.9205116999801,6.9999999999999885,2.182,,,,,,,,,,,,,,,,,,,,,,,,,,,,,,,,,,,,,,sub-047,49.4,48.2,50.3,COM3,2024-07-11_09h40.08.005,2024_RDpaindiscrimination_maintask,2023.2.3,59.99487643695273,2024-07-11 09h40.29.994669 -0400,
1,0,1,0,7,0,7,0,,,,,,,,,,,,,1147.9347235999885,,,,,,,,1147.9213477000012,1152.91821969999,1152.9182260999805,1152.934729200002,1164.951603399997,1164.918666099984,3,active,48.2,1164.918814899982,1167.6535030999803,1.5000000000001297,2.715,,,,,,,,,,,,,,,,,,,,,,,,,,,,,,,,,,,,,,sub-047,49.4,48.2,50.3,COM3,2024-07-11_09h40.08.005,2024_RDpaindiscrimination_maintask,2023.2.3,59.99487643695273,2024-07-11 09h40.29.994669 -0400,
1,0,1,0,8,0,8,0,,,,,,,,,,,,,1167.6682165999955,,,,,,,,1167.6543036999938,1172.6517537999898,1172.651759899978,1172.6683260999853,1184.6851590999868,1184.6523113999865,0,inactive,49.4,1184.652462500002,1187.6706661999924,25.500000000000192,2.998,,,,,,,,,,,,,,,,,,,,,,,,,,,,,,,,,,,,,,sub-047,49.4,48.2,50.3,COM3,2024-07-11_09h40.08.005,2024_RDpaindiscrimination_maintask,2023.2.3,59.99487643695273,2024-07-11 09h40.29.994669 -0400,
1,0,1,0,9,0,9,0,,,,,,,,,,,,,1187.6851860999886,,,,,,,,1187.671457999997,1192.668744399998,1192.668751099991,1192.6852265000052,1204.7019519000023,1204.6691529999953,1,active,48.2,1204.669301899994,1206.920629899978,0.0,2.231,,,,,,,,,,,,,,,,,,,,,,,,,,,,,,,,,,,,,,sub-047,49.4,48.2,50.3,COM3,2024-07-11_09h40.08.005,2024_RDpaindiscrimination_maintask,2023.2.3,59.99487643695273,2024-07-11 09h40.29.994669 -0400,
1,0,1,0,10,0,10,0,,,,,,,,,,,,,1206.9353981000022,,,,,,,,1206.9214213999803,1211.9188640999782,1211.9188701999956,1211.9353664999944,1223.9521740000055,1223.919386499998,2,active,48.2,1223.919540999981,1226.5545539000013,2.2898349882893854e-14,2.615,,,,,,,,,,,,,,,,,,,,,,,,,,,,,,,,,,,,,,sub-047,49.4,48.2,50.3,COM3,2024-07-11_09h40.08.005,2024_RDpaindiscrimination_maintask,2023.2.3,59.99487643695273,2024-07-11 09h40.29.994669 -0400,
1,0,1,0,11,0,11,0,,,,,,,,,,,,,1226.568849000003,,,,,,,,1226.5553620999854,1231.5524759999826,1231.5524824000022,1231.568869299983,1243.5856784999778,1243.5528406999947,3,inactive,49.4,1243.552990199998,1246.0547873000032,43.50000000000006,2.482,,,,,,,,,,,,,,,,,,,,,,,,,,,,,,,,,,,,,,sub-047,49.4,48.2,50.3,COM3,2024-07-11_09h40.08.005,2024_RDpaindiscrimination_maintask,2023.2.3,59.99487643695273,2024-07-11 09h40.29.994669 -0400,
1,0,1,0,12,0,12,0,,,,,,,,,,,,,1246.0691023999825,,,,,,,,1246.0556323999772,1251.0526932999783,1251.0527000000002,1251.0691857000056,1263.0859797000012,1263.053141099983,0,active,48.2,1263.0532950999914,1265.9210400999873,50.9999999999999,2.848,,,,,,,,,,,,,,,,,,,,,,,,,,,,,,,,,,,,,,sub-047,49.4,48.2,50.3,COM3,2024-07-11_09h40.08.005,2024_RDpaindiscrimination_maintask,2023.2.3,59.99487643695273,2024-07-11 09h40.29.994669 -0400,
1,0,1,0,13,0,13,0,,,,,,,,,,,,,1265.936010000005,,,,,,,,1265.9218535999826,1270.9196207999776,1270.9196273999987,1270.9360346999892,1283.0361868999898,1282.9199369999988,1,inactive,49.4,1282.9200859999983,1285.354660299985,54.49999999999996,2.328,,,,,,,,,,,,,,,,,,,,,,,,,,,,,,,,,,,,,,sub-047,49.4,48.2,50.3,COM3,2024-07-11_09h40.08.005,2024_RDpaindiscrimination_maintask,2023.2.3,59.99487643695273,2024-07-11 09h40.29.994669 -0400,
1,0,1,0,14,0,14,0,,,,,,,,,,,,,1285.3695380999998,,,,,,,,1285.3554828999913,1290.3531064999988,1290.353115099977,1290.3695942999911,1302.3863292000024,1302.3535255999886,2,inactive,49.4,1302.353682099987,1304.171651599987,24.50000000000002,1.798,,,,,,,,,,,,,,,,,,,,,,,,,,,,,,,,,,,,,,sub-047,49.4,48.2,50.3,COM3,2024-07-11_09h40.08.005,2024_RDpaindiscrimination_maintask,2023.2.3,59.99487643695273,2024-07-11 09h40.29.994669 -0400,
1,0,1,0,15,0,15,0,,,,,,,,,,,,,1304.186399600003,,,,,,,,1304.1724541999865,1309.1699391999864,1309.1699453000037,1309.1864639999985,1321.2032383999904,1321.1703684999957,3,active,48.2,1321.170520499989,1323.8556497999816,0.0,2.665,,,,,,,,,,,,,,,,,,,,,,,,,,,,,,,,,,,,,,sub-047,49.4,48.2,50.3,COM3,2024-07-11_09h40.08.005,2024_RDpaindiscrimination_maintask,2023.2.3,59.99487643695273,2024-07-11 09h40.29.994669 -0400,
1,0,1,0,,,,,0,0,0,0,0,0,0,0,,,,,1331.186569099984,,,,,,1330.8038089000038,1331.170159100002,,,,,,,0,active,49.4,1348.170218299987,1350.2882516999962,70.49999999999986,2.098,1323.8562508999894,1323.8699426999956,1330.8034914000018,1331.1704386000056,1336.1701173000038,1336.170123799995,1336.1866612999875,,1348.1702098999813,,,,,,,,,,,,,,,,,,,,,,,,,,,,,sub-047,49.4,48.2,50.3,COM3,2024-07-11_09h40.08.005,2024_RDpaindiscrimination_maintask,2023.2.3,59.99487643695273,2024-07-11 09h40.29.994669 -0400,
1,0,1,0,,,,,0,0,0,0,1,0,1,0,,,,,1350.3034312999807,,,,,,,,,,,,,,1,inactive,49.4,1367.2876452999772,1369.3892373999988,14.499999999999995,2.082,,,,1350.2890436000016,1355.2869847999827,1355.2869915000047,1355.3035553999944,1367.3203595999803,1367.2876357999921,,,,,,,,,,,,,,,,,,,,,,,,,,,,,sub-047,49.4,48.2,50.3,COM3,2024-07-11_09h40.08.005,2024_RDpaindiscrimination_maintask,2023.2.3,59.99487643695273,2024-07-11 09h40.29.994669 -0400,
1,0,1,0,,,,,0,0,0,0,,,,,0,0,0,0,1370.6703055999824,,,,,,,,,,,,,,2,active,,,,,,,,,,,,,,,1369.3898266000033,1370.6539536000055,1370.6542918999912,1375.6538780999836,1375.6538850999787,1375.670356799994,1383.653894099989,1383.653894099989,1386.6205578999943,1386.6538914999983,1386.6538914999983,1386.63740029998,3.82,4.98,382,498,8,1.2,0.75,pic-absent,0,m,0.4884680999966804,None,,,,,sub-047,49.4,48.2,50.3,COM3,2024-07-11_09h40.08.005,2024_RDpaindiscrimination_maintask,2023.2.3,59.99487643695273,2024-07-11 09h40.29.994669 -0400,
1,0,1,0,,,,,0,0,0,0,,,,,1,0,1,0,1386.6538914999983,,,,,,,,,,,,,,3,inactive,,,,,,,,,,,,,,,,,1386.63795449998,1391.6423716999998,1391.6423792999994,1391.6538672999886,1399.637372199999,1399.637372199999,1402.6039665999997,1402.6373529999983,1402.6373529999983,1402.6209081999841,4.07,4.73,407,473,8,1.2,0.75,pic-present,0,m,0.6364968999987468,None,,,,,sub-047,49.4,48.2,50.3,COM3,2024-07-11_09h40.08.005,2024_RDpaindiscrimination_maintask,2023.2.3,59.99487643695273,2024-07-11 09h40.29.994669 -0400,
1,0,1,0,,,,,0,0,0,0,,,,,2,0,2,0,1402.6373529999983,,,,,,,,,,,,,,0,inactive,,,,,,,,,,,,,,,,,1402.6214116000046,1407.6208530000004,1407.6208594999916,1407.6373502999777,1415.6208761000016,1415.6208761000016,1418.5874674999795,1418.620834500005,1418.620834500005,1418.6044887999888,4.01,4.79,401,479,8,1.2,0.75,pic-absent,1,n,0.4970240999828093,None,,,,,sub-047,49.4,48.2,50.3,COM3,2024-07-11_09h40.08.005,2024_RDpaindiscrimination_maintask,2023.2.3,59.99487643695273,2024-07-11 09h40.29.994669 -0400,
1,0,1,0,,,,,0,0,0,0,,,,,3,0,3,0,1418.620834500005,,,,,,,,,,,,,,1,active,,,,,,,,,,,,,,,,,1418.6049659999844,1423.6044196999865,1423.6044261999778,1423.6209175999975,1431.6042645999987,1431.6042645999987,1434.5710537999985,1434.6043961999821,1434.6043961999821,1434.5879013999947,3.45,5.35,345,535,8,1.2,0.75,pic-absent,1,n,0.6943080000055488,None,,,,,sub-047,49.4,48.2,50.3,COM3,2024-07-11_09h40.08.005,2024_RDpaindiscrimination_maintask,2023.2.3,59.99487643695273,2024-07-11 09h40.29.994669 -0400,
1,0,1,0,,,,,1,0,1,0,0,0,0,0,,,,,1435.3877638999838,,,,,,1434.5884034000046,1435.3714229000034,,,,,,,2,inactive,49.4,1452.3716661999933,1454.8070389999775,0.0,2.416,,,,1435.3717277999967,1440.3712711999833,1440.3712780999776,1440.3877825999807,1452.4044889999786,1452.371657999989,,,,,,,,,,,,,,,,,,,,,,,,,,,,,sub-047,49.4,48.2,50.3,COM3,2024-07-11_09h40.08.005,2024_RDpaindiscrimination_maintask,2023.2.3,59.99487643695273,2024-07-11 09h40.29.994669 -0400,
1,0,1,0,,,,,1,0,1,0,1,0,1,0,,,,,1454.8213773999887,,,,,,,,,,,,,,3,active,49.4,1471.8052224999992,1474.0242613999872,10.000000000000062,2.199,,,,1454.8078380999796,1459.804759199993,1459.804766199988,1459.8212979999953,1471.838052999985,1471.805214299995,,,,,,,,,,,,,,,,,,,,,,,,,,,,,sub-047,49.4,48.2,50.3,COM3,2024-07-11_09h40.08.005,2024_RDpaindiscrimination_maintask,2023.2.3,59.99487643695273,2024-07-11 09h40.29.994669 -0400,
1,0,1,0,,,,,1,0,1,0,,,,,0,0,0,0,1474.6548285000026,,,,,,,,,,,,,,0,inactive,,,,,,,,,,,,,,,1474.0247677000007,1474.6385418999998,1474.6388655999908,1479.6384150999947,1479.6384214999853,1479.654806299979,1487.638256199978,1487.638256199978,1490.6049927999848,1490.6382478000014,1490.6382478000014,1490.6217676999804,3.78,5.02,378,501,8,1.2,0.75,pic-present,1,n,0.5763637000054587,None,,,,,sub-047,49.4,48.2,50.3,COM3,2024-07-11_09h40.08.005,2024_RDpaindiscrimination_maintask,2023.2.3,59.99487643695273,2024-07-11 09h40.29.994669 -0400,
1,0,1,0,,,,,1,0,1,0,,,,,1,0,1,0,1490.6382478000014,,,,,,,,,,,,,,1,active,,,,,,,,,,,,,,,,,1490.6223316999967,1495.6218383999949,1495.6218452999892,1495.6382945999794,1503.6217195999925,1503.6217195999925,1506.5884173999948,1506.621751300001,1506.621751300001,1506.6052684999886,3.67,5.13,367,513,8,1.2,0.75,pic-absent,0,m,0.8202932999993209,None,,,,,sub-047,49.4,48.2,50.3,COM3,2024-07-11_09h40.08.005,2024_RDpaindiscrimination_maintask,2023.2.3,59.99487643695273,2024-07-11 09h40.29.994669 -0400,
1,0,1,0,,,,,1,0,1,0,,,,,2,0,2,0,1506.621751300001,,,,,,,,,,,,,,2,inactive,,,,,,,,,,,,,,,,,1506.6057547999953,1511.6053715999878,1511.605378599983,1511.6218013000034,1519.6051807999902,1519.6051807999902,1522.5725482999987,1522.6052111999888,1522.6052111999888,1522.5887358000036,3.97,4.83,397,483,8,1.2,0.75,pic-present,1,n,0.9253758999984711,None,,,,,sub-047,49.4,48.2,50.3,COM3,2024-07-11_09h40.08.005,2024_RDpaindiscrimination_maintask,2023.2.3,59.99487643695273,2024-07-11 09h40.29.994669 -0400,
1,0,1,0,,,,,1,0,1,0,,,,,3,0,3,0,1522.6052111999888,,,,,,,,,,,,,,3,active,,,,,,,,,,,,,,,,,1522.5892171000014,1527.5887548000028,1527.5887624000025,1527.6052628000034,1535.5886847999936,1535.5886847999936,1538.555399999983,1538.5887179999845,1538.5887179999845,1538.5722279000038,4.43,4.37,443,437,8,1.2,0.75,pic-present,1,n,0.7456010000023525,None,,,,,sub-047,49.4,48.2,50.3,COM3,2024-07-11_09h40.08.005,2024_RDpaindiscrimination_maintask,2023.2.3,59.99487643695273,2024-07-11 09h40.29.994669 -0400,
1,0,1,0,,,,,2,0,2,0,0,0,0,0,,,,,1539.1387250999978,,,,,,1538.572786899982,1539.1223480000044,,,,,,,0,inactive,49.4,1556.1227591999923,1559.9249189999828,11.000000000000206,3.782,,,,1539.122648699995,1544.1223093000008,1544.1223169000004,1544.1387746999972,1556.155637399992,1556.122750599985,,,,,,,,,,,,,,,,,,,,,,,,,,,,,sub-047,49.4,48.2,50.3,COM3,2024-07-11_09h40.08.005,2024_RDpaindiscrimination_maintask,2023.2.3,59.99487643695273,2024-07-11 09h40.29.994669 -0400,
1,0,1,0,,,,,2,0,2,0,1,0,1,0,,,,,1559.9389962999849,,,,,,,,,,,,,,1,active,49.4,1576.922972500004,1579.8419903999893,13.00000000000017,2.899,,,,1559.9257007999986,1564.9224814999907,1564.9224882999843,1564.938985099987,1576.955853099993,1576.9229649000044,,,,,,,,,,,,,,,,,,,,,,,,,,,,,sub-047,49.4,48.2,50.3,COM3,2024-07-11_09h40.08.005,2024_RDpaindiscrimination_maintask,2023.2.3,59.99487643695273,2024-07-11 09h40.29.994669 -0400,
1,0,1,0,,,,,2,0,2,0,,,,,0,0,0,0,1580.2725084999984,,,,,,,,,,,,,,2,inactive,,,,,,,,,,,,,,,1579.8425160000043,1580.2561970999814,1580.2565306999895,1585.2561462000012,1585.2561525999918,1585.2725538999948,1593.2560385999968,1593.2560385999968,1596.222735999996,1596.2560059999814,1596.2560059999814,1596.2395185999922,4.3,4.5,430,450,8,1.2,0.75,pic-absent,0,m,1.2941824000154156,None,,,,,sub-047,49.4,48.2,50.3,COM3,2024-07-11_09h40.08.005,2024_RDpaindiscrimination_maintask,2023.2.3,59.99487643695273,2024-07-11 09h40.29.994669 -0400,
1,0,1,0,,,,,2,0,2,0,,,,,1,0,1,0,1596.2560059999814,,,,,,,,,,,,,,3,active,,,,,,,,,,,,,,,,,1596.240124200005,1601.2395507000037,1601.2395573999966,1601.2560573999945,1609.2395511999785,1609.2395511999785,1612.2061722999788,1612.2395473999786,1612.2395473999786,1612.2230315999768,4.51,4.29,451,429,8,1.2,0.75,pic-present,1,n,0.3588009999948554,None,,,,,sub-047,49.4,48.2,50.3,COM3,2024-07-11_09h40.08.005,2024_RDpaindiscrimination_maintask,2023.2.3,59.99487643695273,2024-07-11 09h40.29.994669 -0400,
1,0,1,0,,,,,2,0,2,0,,,,,2,0,2,0,1612.2395473999786,,,,,,,,,,,,,,0,active,,,,,,,,,,,,,,,,,1612.2235194999957,1617.2230503000028,1617.2230564999918,1617.2395614999987,1625.2230468000052,1625.2230468000052,1628.1897387999925,1628.2231310999778,1628.2231310999778,1628.2065930999815,4.28,4.52,428,451,8,1.2,0.75,pic-present,1,n,0.9753858000040054,None,,,,,sub-047,49.4,48.2,50.3,COM3,2024-07-11_09h40.08.005,2024_RDpaindiscrimination_maintask,2023.2.3,59.99487643695273,2024-07-11 09h40.29.994669 -0400,
1,0,1,0,,,,,2,0,2,0,,,,,3,0,3,0,1628.2231310999778,,,,,,,,,,,,,,1,inactive,,,,,,,,,,,,,,,,,1628.2070922999992,1633.206624399987,1633.2066311999806,1633.223116499983,1641.2065412999946,1641.2065412999946,1644.173173999996,1644.2065460000013,1644.2065460000013,1644.1900774999813,3.37,5.43,337,543,8,1.2,0.75,pic-absent,0,m,0.9390281999949366,None,,,,,sub-047,49.4,48.2,50.3,COM3,2024-07-11_09h40.08.005,2024_RDpaindiscrimination_maintask,2023.2.3,59.99487643695273,2024-07-11 09h40.29.994669 -0400,
1,0,1,0,,,,,3,0,3,0,0,0,0,0,,,,,1644.7231702999852,,,,,,1644.190652499994,1644.7068671000015,,,,,,,2,active,49.4,1661.707238300005,1664.3599633999984,50.49999999999997,2.633,,,,1644.70716239998,1649.7066900999926,1649.7066968999861,1649.723259899998,1661.740088599996,1661.707229599997,,,,,,,,,,,,,,,,,,,,,,,,,,,,,sub-047,49.4,48.2,50.3,COM3,2024-07-11_09h40.08.005,2024_RDpaindiscrimination_maintask,2023.2.3,59.99487643695273,2024-07-11 09h40.29.994669 -0400,
1,0,1,0,,,,,3,0,3,0,1,0,1,0,,,,,1664.373396399984,,,,,,,,,,,,,,3,inactive,49.4,1681.357302999997,1684.6431596000039,12.500000000000206,3.266,,,,1664.3607370999816,1669.3568986000028,1669.3569056999986,1669.3733974999923,1681.390185700002,1681.357295099995,,,,,,,,,,,,,,,,,,,,,,,,,,,,,sub-047,49.4,48.2,50.3,COM3,2024-07-11_09h40.08.005,2024_RDpaindiscrimination_maintask,2023.2.3,59.99487643695273,2024-07-11 09h40.29.994669 -0400,
1,0,1,0,,,,,3,0,3,0,,,,,0,0,0,0,1685.056887499988,,,,,,,,,,,,,,0,active,,,,,,,,,,,,,,,1684.64369919998,1685.0405580999795,1685.04087669999,1690.0404373999918,1690.0404442999861,1690.0569371999882,1698.0404251999862,1698.0404251999862,1701.0071006999933,1701.0404268999991,1701.0404268999991,1701.0240447999968,4.29,4.51,429,451,8,1.2,0.75,pic-present,1,n,0.8894419000134803,None,,,,,sub-047,49.4,48.2,50.3,COM3,2024-07-11_09h40.08.005,2024_RDpaindiscrimination_maintask,2023.2.3,59.99487643695273,2024-07-11 09h40.29.994669 -0400,
1,0,1,0,,,,,3,0,3,0,,,,,1,0,1,0,1701.0404268999991,,,,,,,,,,,,,,1,inactive,,,,,,,,,,,,,,,,,1701.0246217999957,1706.0239324999857,1706.0239400999853,1706.0404914999963,1714.024011100002,1714.024011100002,1716.9906830999826,1717.024016499985,1717.024016499985,1717.0075020999939,4.58,4.22,458,422,8,1.2,0.75,pic-absent,0,m,0.4297030000016093,None,,,,,sub-047,49.4,48.2,50.3,COM3,2024-07-11_09h40.08.005,2024_RDpaindiscrimination_maintask,2023.2.3,59.99487643695273,2024-07-11 09h40.29.994669 -0400,
1,0,1,0,,,,,3,0,3,0,,,,,2,0,2,0,1717.024016499985,,,,,,,,,,,,,,2,active,,,,,,,,,,,,,,,,,1717.0079944999889,1722.0075237999845,1722.0075308999803,1722.0239777999814,1730.0074556999898,1730.0074556999898,1732.9740959999908,1733.0074180999945,1733.0074180999945,1732.990988799982,4.02,4.78,401,478,8,1.2,0.75,pic-absent,0,m,0.3909715000190772,None,,,,,sub-047,49.4,48.2,50.3,COM3,2024-07-11_09h40.08.005,2024_RDpaindiscrimination_maintask,2023.2.3,59.99487643695273,2024-07-11 09h40.29.994669 -0400,
1,0,1,0,,,,,3,0,3,0,,,,,3,0,3,0,1733.0074180999945,,,,,,,,,,,,,,3,inactive,,,,,,,,,,,,,,,,,1732.9914721999958,1737.991011599981,1737.9910186999768,1738.00745059998,1745.9909015999874,1745.9909015999874,1748.9576329999836,1748.990892599977,1748.990892599977,1748.9744020999933,4.75,4.05,475,405,8,1.2,0.75,pic-present,1,n,0.4910428000148386,None,,,,,sub-047,49.4,48.2,50.3,COM3,2024-07-11_09h40.08.005,2024_RDpaindiscrimination_maintask,2023.2.3,59.99487643695273,2024-07-11 09h40.29.994669 -0400,
,,,,,,,,,,,,,,,,,,,,,,,,,,,,,,,,,,,,,,,,,,,,,,,,,,,,,,,,,,,,,,,,,,,,,,,,,,1748.9748591999814,1752.6412508999929,1752.6412704999966,1762.6412170999974,,,,,,,,,,,
