trials.thisRepN,trials.thisTrialN,trials.thisN,trials.thisIndex,loop_test.thisRepN,loop_test.thisTrialN,loop_test.thisN,loop_test.thisIndex,loop_eval_discri.thisRepN,loop_eval_discri.thisTrialN,loop_eval_discri.thisN,loop_eval_discri.thisIndex,loop_eval.thisRepN,loop_eval.thisTrialN,loop_eval.thisN,loop_eval.thisIndex,loop_discri.thisRepN,loop_discri.thisTrialN,loop_discri.thisN,loop_discri.thisIndex,thisRow.t,notes,Set_up.started,Set_up.stopped,electrode_check.started,electrode_check.stopped,instructions_eval.started,instructions_eval.stopped,pause_5_test.started,pause_5_test.stopped,Phase_Test.started,thermode_locali.started,Phase_Test.stopped,loca_thermode,condition,temp_trial_sent,eval_douleur.started,eval_douleur.stopped,ratingScale.response,ratingScale.rt,thermode_locali.stopped,Fin_test.started,text.started,Fin_test.stopped,pause_5_EVA.started,pause_5_EVA.stopped,tâche_EVA.started,thermode_locali_EVA.started,thermode_locali_EVA.stopped,tâche_EVA.stopped,instructions_discrim.started,instructions_discrim.stopped,pause_5_pic.started,pause_5_pic.stopped,tâche_PIC.started,thermode_locali_pic.started,percu_or.started,responser.started,thermode_locali_pic.stopped,percu_or.stopped,responser.stopped,tâche_PIC.stopped,dur_plateau1,dur_plateau2,dur_plateau1_sent,dur_plateau2_sent,start_plateau_2_resp,dur_pic,dur_rise,pic_presence,pic_response,discrimin_resp.keys,discrimin_resp.rt,discrimin_resp.duration,break_entre_bloc.started,break_entre_bloc.stopped,merci.started,merci.stopped,participant,temp_flat,temp_active,temp_pic_set,com_thermode,date,expName,psychopyVersion,frameRate,expStart,
0,0,0,0,0,0,0,0,,,,,,,,,,,,,112.63050490000751,,0.012618299922905862,101.94731720001437,101.947715499904,108.31403179990593,108.31404059997294,112.59734619990923,112.59762469993439,117.61390799994115,117.61391449999064,117.6304991999641,129.5974251999287,0,active,44.8,129.59766079997644,133.88226819992997,5.500000000000059,4.262,,,,,,,,,,,,,,,,,,,,,,,,,,,,,,,,,,,,,,,sub-038,46.3,44.8,47.2,COM3,2024-05-27_09h37.00.790,2024_RDpaindiscrimination_maintask,2023.2.3,59.99761206288793,2024-05-27 09h37.22.275461 -0400,
0,0,0,0,1,0,1,0,,,,,,,,,,,,,133.89741550001781,,,,,,,,133.8832142999163,138.88092269992922,138.88092979998328,138.8974638999207,150.88143909990322,1,active,44.8,150.8815832999535,153.56604629999492,13.000000000000004,2.665,150.91427209996618,,,,,,,,,,,,,,,,,,,,,,,,,,,,,,,,,,,,,,sub-038,46.3,44.8,47.2,COM3,2024-05-27_09h37.00.790,2024_RDpaindiscrimination_maintask,2023.2.3,59.99761206288793,2024-05-27 09h37.22.275461 -0400,
0,0,0,0,2,0,2,0,,,,,,,,,,,,,153.58083519991487,,,,,,,,153.5668602999067,158.5644641999388,158.56447029998526,158.58096900000237,170.5649099999573,2,inactive,46.3,170.56505350000225,176.68266469996888,51.49999999999992,6.099,170.5977917999262,,,,,,,,,,,,,,,,,,,,,,,,,,,,,,,,,,,,,,sub-038,46.3,44.8,47.2,COM3,2024-05-27_09h37.00.790,2024_RDpaindiscrimination_maintask,2023.2.3,59.99761206288793,2024-05-27 09h37.22.275461 -0400,
0,0,0,0,3,0,3,0,,,,,,,,,,,,,176.69785539992154,,,,,,,,176.68340989993885,181.68140809994657,181.6814149999991,181.69786319998093,193.6818327999208,3,active,44.8,193.68197709997185,197.76646009995602,26.499999999999986,4.065,193.71470060001593,,,,,,,,,,,,,,,,,,,,,,,,,,,,,,,,,,,,,,sub-038,46.3,44.8,47.2,COM3,2024-05-27_09h37.00.790,2024_RDpaindiscrimination_maintask,2023.2.3,59.99761206288793,2024-05-27 09h37.22.275461 -0400,
0,0,0,0,4,0,4,0,,,,,,,,,,,,,197.78142949996982,,,,,,,,197.76721969991922,202.76501609990373,202.76502359996084,202.78146099997684,214.76537639996968,0,inactive,46.3,214.76551900000777,219.0669348000083,48.49999999999997,4.283,214.7982072000159,,,,,,,,,,,,,,,,,,,,,,,,,,,,,,,,,,,,,,sub-038,46.3,44.8,47.2,COM3,2024-05-27_09h37.00.790,2024_RDpaindiscrimination_maintask,2023.2.3,59.99761206288793,2024-05-27 09h37.22.275461 -0400,
0,0,0,0,5,0,5,0,,,,,,,,,,,,,219.08162909990642,,,,,,,,219.06767439993564,224.0651979999384,224.0652046999894,224.0816446999088,236.0655702999793,1,inactive,46.3,236.06571090000216,239.40121369995177,55.99999999999995,3.317,236.09840489993803,,,,,,,,,,,,,,,,,,,,,,,,,,,,,,,,,,,,,,sub-038,46.3,44.8,47.2,COM3,2024-05-27_09h37.00.790,2024_RDpaindiscrimination_maintask,2023.2.3,59.99761206288793,2024-05-27 09h37.22.275461 -0400,
0,0,0,0,6,0,6,0,,,,,,,,,,,,,239.41514639998786,,,,,,,,239.4019871999044,244.39878149994183,244.39878739998676,244.41515129990876,256.3991902999114,2,active,44.8,256.39933359995484,259.26749050000217,42.99999999999996,2.849,256.4320162999211,,,,,,,,,,,,,,,,,,,,,,,,,,,,,,,,,,,,,,sub-038,46.3,44.8,47.2,COM3,2024-05-27_09h37.00.790,2024_RDpaindiscrimination_maintask,2023.2.3,59.99761206288793,2024-05-27 09h37.22.275461 -0400,
0,0,0,0,7,0,7,0,,,,,,,,,,,,,259.2819430999225,,,,,,,,259.26826199993957,264.26557729998603,264.2655835999176,264.28207369998563,276.2659967999207,3,inactive,46.3,276.2661447999999,279.3187226000009,69.49999999999986,3.033,276.2988320000004,,,,,,,,,,,,,,,,,,,,,,,,,,,,,,,,,,,,,,sub-038,46.3,44.8,47.2,COM3,2024-05-27_09h37.00.790,2024_RDpaindiscrimination_maintask,2023.2.3,59.99761206288793,2024-05-27 09h37.22.275461 -0400,
0,0,0,0,8,0,8,0,,,,,,,,,,,,,279.33216669992544,,,,,,,,279.3197527999291,284.31578880001325,284.3157956999494,284.33226109994575,296.3162274999777,0,inactive,46.3,296.3163725999184,299.21882929990534,49.499999999999964,2.884,296.3490698999958,,,,,,,,,,,,,,,,,,,,,,,,,,,,,,,,,,,,,,sub-038,46.3,44.8,47.2,COM3,2024-05-27_09h37.00.790,2024_RDpaindiscrimination_maintask,2023.2.3,59.99761206288793,2024-05-27 09h37.22.275461 -0400,
0,0,0,0,9,0,9,0,,,,,,,,,,,,,299.23246909992304,,,,,,,,299.21964399993885,304.2160290000029,304.2160351999337,304.2325328999432,316.2164427000098,1,active,44.8,316.2165859999368,317.9353426999878,40.000000000000036,1.7,316.24930019991007,,,,,,,,,,,,,,,,,,,,,,,,,,,,,,,,,,,,,,sub-038,46.3,44.8,47.2,COM3,2024-05-27_09h37.00.790,2024_RDpaindiscrimination_maintask,2023.2.3,59.99761206288793,2024-05-27 09h37.22.275461 -0400,
0,0,0,0,10,0,10,0,,,,,,,,,,,,,317.94933139998466,,,,,,,,317.93610900000203,322.93285799992736,322.9328646999784,322.9492768999189,334.9332118999446,2,inactive,46.3,334.93335579999257,336.7679764999775,74.50000000000001,1.816,334.9660308000166,,,,,,,,,,,,,,,,,,,,,,,,,,,,,,,,,,,,,,sub-038,46.3,44.8,47.2,COM3,2024-05-27_09h37.00.790,2024_RDpaindiscrimination_maintask,2023.2.3,59.99761206288793,2024-05-27 09h37.22.275461 -0400,
0,0,0,0,11,0,11,0,,,,,,,,,,,,,336.78271169995423,,,,,,,,336.76876609993633,341.7664874999318,341.7664940999821,341.78289219993167,353.7668024000013,3,inactive,46.3,353.7669542999938,355.6357114999555,74.49999999999999,1.85,353.799688900006,,,,,,,,,,,,,,,,,,,,,,,,,,,,,,,,,,,,,,sub-038,46.3,44.8,47.2,COM3,2024-05-27_09h37.00.790,2024_RDpaindiscrimination_maintask,2023.2.3,59.99761206288793,2024-05-27 09h37.22.275461 -0400,
0,0,0,0,12,0,12,0,,,,,,,,,,,,,355.6497466999572,,,,,,,,355.6364560999209,360.6332778999349,360.6332840999821,360.6497644999763,372.63370859995484,0,active,44.8,372.63385989994276,374.6697495999979,18.500000000000036,2.017,372.6666049999185,,,,,,,,,,,,,,,,,,,,,,,,,,,,,,,,,,,,,,sub-038,46.3,44.8,47.2,COM3,2024-05-27_09h37.00.790,2024_RDpaindiscrimination_maintask,2023.2.3,59.99761206288793,2024-05-27 09h37.22.275461 -0400,
0,0,0,0,13,0,13,0,,,,,,,,,,,,,374.68329989991616,,,,,,,,374.6705368999392,379.6667109999107,379.6667172999587,379.6832078999141,391.6671224000165,1,inactive,46.3,391.6672656999435,396.401871799957,64.99999999999984,4.716,391.69997359998524,,,,,,,,,,,,,,,,,,,,,,,,,,,,,,,,,,,,,,sub-038,46.3,44.8,47.2,COM3,2024-05-27_09h37.00.790,2024_RDpaindiscrimination_maintask,2023.2.3,59.99761206288793,2024-05-27 09h37.22.275461 -0400,
0,0,0,0,14,0,14,0,,,,,,,,,,,,,396.416821599938,,,,,,,,396.4026168999262,401.40039199998137,401.4003983999137,401.41680359991733,413.40083319996484,2,active,44.8,413.40097309998237,415.46896199998446,21.50000000000003,2.049,413.4336801000172,,,,,,,,,,,,,,,,,,,,,,,,,,,,,,,,,,,,,,sub-038,46.3,44.8,47.2,COM3,2024-05-27_09h37.00.790,2024_RDpaindiscrimination_maintask,2023.2.3,59.99761206288793,2024-05-27 09h37.22.275461 -0400,
0,0,0,0,15,0,15,0,,,,,,,,,,,,,415.48362509999424,,,,,,,,415.4697726999875,420.4671357999323,420.4671427999856,420.4836233999813,432.4675937999273,3,active,44.8,432.46773539995775,434.0687081000069,10.5,1.582,432.500435099937,,,,,,,,,,,,,,,,,,,,,,,,,,,,,,,,,,,,,,sub-038,46.3,44.8,47.2,COM3,2024-05-27_09h37.00.790,2024_RDpaindiscrimination_maintask,2023.2.3,59.99761206288793,2024-05-27 09h37.22.275461 -0400,
0,0,0,0,,,,,0,0,0,0,0,0,0,0,,,,,498.8678598999977,,,,,,486.5683474999387,498.8515588999726,,,,,,0,inactive,46.3,515.8517041999148,518.2530022999272,55.00000000000006,2.382,,434.0693210000172,434.08381499990355,486.56802469992545,498.85185779992025,503.85155219992157,503.85155949997716,503.8679558999138,515.8847815999761,515.8516955999658,,,,,,,,,,,,,,,,,,,,,,,,,,,,,sub-038,46.3,44.8,47.2,COM3,2024-05-27_09h37.00.790,2024_RDpaindiscrimination_maintask,2023.2.3,59.99761206288793,2024-05-27 09h37.22.275461 -0400,
0,0,0,0,,,,,0,0,0,0,1,0,1,0,,,,,518.268105099909,,,,,,,,,,,,,1,active,46.3,535.25219499995,537.4532369999215,46.99999999999997,2.182,,,,,518.253796499921,523.2516620999668,523.2516694999067,523.2680932999356,535.2849644999951,535.2521874000086,,,,,,,,,,,,,,,,,,,,,,,,,,,,,sub-038,46.3,44.8,47.2,COM3,2024-05-27_09h37.00.790,2024_RDpaindiscrimination_maintask,2023.2.3,59.99761206288793,2024-05-27 09h37.22.275461 -0400,
0,0,0,0,,,,,0,0,0,0,,,,,0,0,0,0,540.0016700999113,,,,,,,,,,,,,2,active,,,,,,,,,,,,,,,,537.4537877999246,539.9853453999385,539.9856809999328,544.9852225999348,544.9852300999919,545.0017242999747,552.9851508999709,552.9851508999709,555.9518370999722,555.9852340999059,555.9852340999059,555.968657999998,4.35,4.45,434,445,8,1.2,0.75,pic-absent,0,n,1.0529116000980139,None,,,,,sub-038,46.3,44.8,47.2,COM3,2024-05-27_09h37.00.790,2024_RDpaindiscrimination_maintask,2023.2.3,59.99761206288793,2024-05-27 09h37.22.275461 -0400,
0,0,0,0,,,,,0,0,0,0,,,,,1,0,1,0,555.9852340999059,,,,,,,,,,,,,3,inactive,,,,,,,,,,,,,,,,,,555.9692548000021,560.968732999987,560.9687391999178,560.9852055999218,568.968649599934,568.968649599934,571.9352938999655,571.9686845999677,571.9686845999677,571.9520841999911,4.06,4.74,405,474,8,1.2,0.75,pic-absent,1,m,1.6772409999975935,None,,,,,sub-038,46.3,44.8,47.2,COM3,2024-05-27_09h37.00.790,2024_RDpaindiscrimination_maintask,2023.2.3,59.99761206288793,2024-05-27 09h37.22.275461 -0400,
0,0,0,0,,,,,0,0,0,0,,,,,2,0,2,0,571.9686845999677,,,,,,,,,,,,,0,active,,,,,,,,,,,,,,,,,,571.9525372999487,576.952237599995,576.9522446999326,576.9687473999802,584.9520514999749,584.9520514999749,587.9187793999445,587.9521773000015,587.9521773000015,587.9356286999537,4.13,4.67,413,467,8,1.2,0.75,pic-present,0,n,1.3580467000138015,None,,,,,sub-038,46.3,44.8,47.2,COM3,2024-05-27_09h37.00.790,2024_RDpaindiscrimination_maintask,2023.2.3,59.99761206288793,2024-05-27 09h37.22.275461 -0400,
0,0,0,0,,,,,0,0,0,0,,,,,3,0,3,0,587.9521773000015,,,,,,,,,,,,,1,active,,,,,,,,,,,,,,,,,,587.9361075999914,592.935670799925,592.9356780999806,592.9521669999231,600.9356066999026,600.9356066999026,603.9022983999457,603.9355880999938,603.9355880999938,603.9190994999371,3.32,5.48,332,548,8,1.2,0.75,pic-present,1,m,1.0381866999669,None,,,,,sub-038,46.3,44.8,47.2,COM3,2024-05-27_09h37.00.790,2024_RDpaindiscrimination_maintask,2023.2.3,59.99761206288793,2024-05-27 09h37.22.275461 -0400,
0,0,0,0,,,,,1,0,1,0,0,0,0,0,,,,,606.4856559999753,,,,,,603.9195947999833,606.4692211999791,,,,,,2,active,46.3,623.4696968999924,625.6540530999191,56.99999999999997,2.166,,,,,606.4695384999504,611.4692840999924,611.4692923999391,611.4857100999216,623.5024969999213,623.4696884999285,,,,,,,,,,,,,,,,,,,,,,,,,,,,,sub-038,46.3,44.8,47.2,COM3,2024-05-27_09h37.00.790,2024_RDpaindiscrimination_maintask,2023.2.3,59.99761206288793,2024-05-27 09h37.22.275461 -0400,
0,0,0,0,,,,,1,0,1,0,1,0,1,0,,,,,625.6691781999543,,,,,,,,,,,,,3,inactive,46.3,642.6530745999189,644.6546101999702,64.99999999999994,1.983,,,,,625.6548355999403,630.6527705999324,630.6527771999827,630.6692073999438,642.6860836999258,642.6530667999759,,,,,,,,,,,,,,,,,,,,,,,,,,,,,sub-038,46.3,44.8,47.2,COM3,2024-05-27_09h37.00.790,2024_RDpaindiscrimination_maintask,2023.2.3,59.99761206288793,2024-05-27 09h37.22.275461 -0400,
0,0,0,0,,,,,1,0,1,0,,,,,0,0,0,0,646.8860841999995,,,,,,,,,,,,,0,inactive,,,,,,,,,,,,,,,,644.6551071999129,646.8697578000138,646.8700889999745,651.8696433999576,651.8696510000154,651.8861632999033,659.8695463999175,659.8695463999175,662.8362532999599,662.8695829999633,662.8695829999633,662.8531668999931,4.03,4.77,403,476,8,1.2,0.75,pic-absent,0,n,0.5241889000171795,None,,,,,sub-038,46.3,44.8,47.2,COM3,2024-05-27_09h37.00.790,2024_RDpaindiscrimination_maintask,2023.2.3,59.99761206288793,2024-05-27 09h37.22.275461 -0400,
0,0,0,0,,,,,1,0,1,0,,,,,1,0,1,0,662.8695829999633,,,,,,,,,,,,,1,active,,,,,,,,,,,,,,,,,,662.8537185000023,667.8531781999627,667.8531897999346,667.8696417999454,675.8531011999585,675.8531011999585,678.8197184000164,678.8530949999113,678.8530949999113,678.836566700018,4.01,4.79,401,479,8,1.2,0.75,pic-absent,0,n,0.9095162999583408,None,,,,,sub-038,46.3,44.8,47.2,COM3,2024-05-27_09h37.00.790,2024_RDpaindiscrimination_maintask,2023.2.3,59.99761206288793,2024-05-27 09h37.22.275461 -0400,
0,0,0,0,,,,,1,0,1,0,,,,,2,0,2,0,678.8530949999113,,,,,,,,,,,,,2,inactive,,,,,,,,,,,,,,,,,,678.8370239000069,683.8366317999316,683.8366387999849,683.8531376000028,691.83663289994,691.83663289994,694.8033360999543,694.8366652999539,694.8366652999539,694.820209599915,4.05,4.75,405,475,8,1.2,0.75,pic-present,1,m,0.9659678000025451,None,,,,,sub-038,46.3,44.8,47.2,COM3,2024-05-27_09h37.00.790,2024_RDpaindiscrimination_maintask,2023.2.3,59.99761206288793,2024-05-27 09h37.22.275461 -0400,
0,0,0,0,,,,,1,0,1,0,,,,,3,0,3,0,694.8366652999539,,,,,,,,,,,,,3,active,,,,,,,,,,,,,,,,,,694.8207044999581,699.8248746999307,699.8248808999779,699.8366138999118,707.8201499999268,707.8201499999268,710.7867473999504,710.8201539999573,710.8201539999573,710.8036178000038,4.49,4.31,449,430,8,1.2,0.75,pic-absent,0,n,0.9779065999900922,None,,,,,sub-038,46.3,44.8,47.2,COM3,2024-05-27_09h37.00.790,2024_RDpaindiscrimination_maintask,2023.2.3,59.99761206288793,2024-05-27 09h37.22.275461 -0400,
0,0,0,0,,,,,2,0,2,0,0,0,0,0,,,,,712.3368675999809,,,,,,710.8041077000089,712.3204372999026,,,,,,0,active,46.3,729.3208187000128,731.6888937999029,30.000000000000107,2.349,,,,,712.3207501999568,717.3204453999642,717.3204528999049,717.3368869000115,729.3536827999633,729.3208103999496,,,,,,,,,,,,,,,,,,,,,,,,,,,,,sub-038,46.3,44.8,47.2,COM3,2024-05-27_09h37.00.790,2024_RDpaindiscrimination_maintask,2023.2.3,59.99761206288793,2024-05-27 09h37.22.275461 -0400,
0,0,0,0,,,,,2,0,2,0,1,0,1,0,,,,,731.7037084999029,,,,,,,,,,,,,1,inactive,46.3,748.6877192999236,750.1401839000173,50.0,1.434,,,,,731.6897290999768,736.6872572000138,736.6872642999515,736.7037565999199,748.7205462999409,748.6877112999791,,,,,,,,,,,,,,,,,,,,,,,,,,,,,sub-038,46.3,44.8,47.2,COM3,2024-05-27_09h37.00.790,2024_RDpaindiscrimination_maintask,2023.2.3,59.99761206288793,2024-05-27 09h37.22.275461 -0400,
0,0,0,0,,,,,2,0,2,0,,,,,0,0,0,0,751.7705281999661,,,,,,,,,,,,,2,inactive,,,,,,,,,,,,,,,,750.1407585999696,751.7542038999964,751.7545480999397,756.7541335999267,756.7541407999815,756.7706970999716,764.7540342999855,764.7540342999855,767.7207556999056,767.7540848999051,767.7540848999051,767.7375626999419,3.99,4.81,399,480,8,1.2,0.75,pic-present,1,m,1.21215050003957,None,,,,,sub-038,46.3,44.8,47.2,COM3,2024-05-27_09h37.00.790,2024_RDpaindiscrimination_maintask,2023.2.3,59.99761206288793,2024-05-27 09h37.22.275461 -0400,
0,0,0,0,,,,,2,0,2,0,,,,,1,0,1,0,767.7540848999051,,,,,,,,,,,,,3,active,,,,,,,,,,,,,,,,,,767.7381007999647,772.7376849999418,772.7376922999974,772.7541304999031,780.7375994999893,780.7375994999893,783.7042923999252,783.7376300999895,783.7376300999895,783.7212091999827,3.76,5.04,376,504,8,1.2,0.75,pic-present,1,m,0.940038500004448,None,,,,,sub-038,46.3,44.8,47.2,COM3,2024-05-27_09h37.00.790,2024_RDpaindiscrimination_maintask,2023.2.3,59.99761206288793,2024-05-27 09h37.22.275461 -0400,
0,0,0,0,,,,,2,0,2,0,,,,,2,0,2,0,783.7376300999895,,,,,,,,,,,,,0,active,,,,,,,,,,,,,,,,,,783.7217194999103,788.7211705999216,788.721177999978,788.7376868999563,796.7210947999265,796.7210947999265,799.6878423999297,799.7211396999191,799.7211396999191,799.7046440999256,3.76,5.04,376,504,8,1.2,0.75,pic-absent,0,n,0.9492932999273762,None,,,,,sub-038,46.3,44.8,47.2,COM3,2024-05-27_09h37.00.790,2024_RDpaindiscrimination_maintask,2023.2.3,59.99761206288793,2024-05-27 09h37.22.275461 -0400,
0,0,0,0,,,,,2,0,2,0,,,,,3,0,3,0,799.7211396999191,,,,,,,,,,,,,1,inactive,,,,,,,,,,,,,,,,,,799.7051033999305,804.7047425999772,804.7047495999141,804.7211516000098,812.7046644999646,812.7046644999646,815.6713025999488,815.7046094000107,815.7046094000107,815.688157800003,3.39,5.41,339,541,8,1.2,0.75,pic-absent,0,n,0.9574937999714166,None,,,,,sub-038,46.3,44.8,47.2,COM3,2024-05-27_09h37.00.790,2024_RDpaindiscrimination_maintask,2023.2.3,59.99761206288793,2024-05-27 09h37.22.275461 -0400,
0,0,0,0,,,,,3,0,3,0,0,0,0,0,,,,,817.8213036999805,,,,,,815.6886565999594,817.8049229999306,,,,,,2,inactive,46.3,834.8051994999405,837.3061076999875,50.00000000000011,2.482,,,,,817.8052302999422,822.8048249999993,822.8048326999415,822.8213443999412,834.8382253999589,834.8051915999968,,,,,,,,,,,,,,,,,,,,,,,,,,,,,sub-038,46.3,44.8,47.2,COM3,2024-05-27_09h37.00.790,2024_RDpaindiscrimination_maintask,2023.2.3,59.99761206288793,2024-05-27 09h37.22.275461 -0400,
0,0,0,0,,,,,3,0,3,0,1,0,1,0,,,,,837.3215388999088,,,,,,,,,,,,,3,active,46.3,854.305524299969,857.0079233999131,31.999999999999964,2.684,,,,,837.3068203999428,842.3051356999204,842.305143399979,842.3215865999227,854.3383829999948,854.3055166999111,,,,,,,,,,,,,,,,,,,,,,,,,,,,,sub-038,46.3,44.8,47.2,COM3,2024-05-27_09h37.00.790,2024_RDpaindiscrimination_maintask,2023.2.3,59.99761206288793,2024-05-27 09h37.22.275461 -0400,
0,0,0,0,,,,,3,0,3,0,,,,,0,0,0,0,858.8217953999992,,,,,,,,,,,,,0,active,,,,,,,,,,,,,,,,857.0084818999749,858.8053649999201,858.805695499992,863.8053628999041,863.8053701999597,863.8217811000068,871.8052024999633,871.8052024999633,874.7717834999785,874.8051191999111,874.8051191999111,874.7886365000159,3.61,5.19,361,519,8,1.2,0.75,pic-present,1,m,0.9887498000171036,None,,,,,sub-038,46.3,44.8,47.2,COM3,2024-05-27_09h37.00.790,2024_RDpaindiscrimination_maintask,2023.2.3,59.99761206288793,2024-05-27 09h37.22.275461 -0400,
0,0,0,0,,,,,3,0,3,0,,,,,1,0,1,0,874.8051191999111,,,,,,,,,,,,,1,inactive,,,,,,,,,,,,,,,,,,874.7892497999128,879.788761899923,879.7887688999763,879.8052131999284,887.7886296999641,887.7886296999641,890.755318999989,890.7886617999757,890.7886617999757,890.7721770999487,4.18,4.62,418,462,8,1.2,0.75,pic-present,0,n,1.041726000024937,None,,,,,sub-038,46.3,44.8,47.2,COM3,2024-05-27_09h37.00.790,2024_RDpaindiscrimination_maintask,2023.2.3,59.99761206288793,2024-05-27 09h37.22.275461 -0400,
0,0,0,0,,,,,3,0,3,0,,,,,2,0,2,0,890.7886617999757,,,,,,,,,,,,,2,inactive,,,,,,,,,,,,,,,,,,890.7726589000085,895.7722867999692,895.772293399903,895.7887043999508,903.7722157000098,903.7722157000098,906.7387931999983,906.7721562999068,906.7721562999068,906.7556357999565,3.42,5.38,342,538,8,1.2,0.75,pic-absent,0,n,1.0535640000598505,None,,,,,sub-038,46.3,44.8,47.2,COM3,2024-05-27_09h37.00.790,2024_RDpaindiscrimination_maintask,2023.2.3,59.99761206288793,2024-05-27 09h37.22.275461 -0400,
0,0,0,0,,,,,3,0,3,0,,,,,3,0,3,0,906.7721562999068,,,,,,,,,,,,,3,inactive,,,,,,,,,,,,,,,,,,906.756560800015,911.7557266999502,911.7557334000012,911.7721768999472,919.755620699958,919.755620699958,922.7222968999995,922.7556429000106,922.7556429000106,922.7391485999105,4.2,4.6,420,459,8,1.2,0.75,pic-present,1,m,0.9226361999753863,None,,,,,sub-038,46.3,44.8,47.2,COM3,2024-05-27_09h37.00.790,2024_RDpaindiscrimination_maintask,2023.2.3,59.99761206288793,2024-05-27 09h37.22.275461 -0400,
1,0,1,0,0,0,0,0,,,,,,,,,,,,,983.2396451999666,,,,978.9567430999596,980.3900285999989,980.3900363999419,983.2233218000038,983.2236377999652,988.2231613999465,988.2231686000014,988.2397514999611,1000.2236607999075,0,active,44.8,1000.2238807999529,1004.0928369999165,9.500000000000204,3.846,1000.2564902999438,,,,,,,,,,,,,,,,,,,,,,,,,,,,,,,,,,922.7396070999093,978.9566137999063,,,sub-038,46.3,44.8,47.2,COM3,2024-05-27_09h37.00.790,2024_RDpaindiscrimination_maintask,2023.2.3,59.99761206288793,2024-05-27 09h37.22.275461 -0400,
1,0,1,0,1,0,1,0,,,,,,,,,,,,,1004.1065430999734,,,,,,,,1004.0937091999222,1009.0901142999064,1009.0901216999628,1009.1066835999954,1021.0905575999059,1,inactive,46.3,1021.0907070999965,1023.7252396999393,55.49999999999987,2.615,1021.1233923999825,,,,,,,,,,,,,,,,,,,,,,,,,,,,,,,,,,,,,,sub-038,46.3,44.8,47.2,COM3,2024-05-27_09h37.00.790,2024_RDpaindiscrimination_maintask,2023.2.3,59.99761206288793,2024-05-27 09h37.22.275461 -0400,
1,0,1,0,2,0,2,0,,,,,,,,,,,,,1023.7401428999146,,,,,,,,1023.7260023999261,1028.7237299999688,1028.7237369999057,1028.7402121999767,1040.724207399995,2,active,44.8,1040.7243614000035,1042.3428351999028,17.500000000000032,1.6,1040.7569808999542,,,,,,,,,,,,,,,,,,,,,,,,,,,,,,,,,,,,,,sub-038,46.3,44.8,47.2,COM3,2024-05-27_09h37.00.790,2024_RDpaindiscrimination_maintask,2023.2.3,59.99761206288793,2024-05-27 09h37.22.275461 -0400,
1,0,1,0,3,0,3,0,,,,,,,,,,,,,1042.3570363000035,,,,,,,,1042.3435508999974,1047.3405723000178,1047.3405786999501,1047.3570830000099,1059.3411382999038,3,inactive,46.3,1059.3412865999853,1061.8934736999217,51.49999999999992,2.534,1059.3745585000142,,,,,,,,,,,,,,,,,,,,,,,,,,,,,,,,,,,,,,sub-038,46.3,44.8,47.2,COM3,2024-05-27_09h37.00.790,2024_RDpaindiscrimination_maintask,2023.2.3,59.99761206288793,2024-05-27 09h37.22.275461 -0400,
1,0,1,0,4,0,4,0,,,,,,,,,,,,,1061.9071586999344,,,,,,,,1061.8942328999983,1066.8908236999996,1066.8908298999304,1066.907249599928,1078.8912257999182,0,inactive,46.3,1078.89136889996,1081.2252448999789,50.50000000000007,2.315,1078.924110999913,,,,,,,,,,,,,,,,,,,,,,,,,,,,,,,,,,,,,,sub-038,46.3,44.8,47.2,COM3,2024-05-27_09h37.00.790,2024_RDpaindiscrimination_maintask,2023.2.3,59.99761206288793,2024-05-27 09h37.22.275461 -0400,
1,0,1,0,5,0,5,0,,,,,,,,,,,,,1081.2407390999142,,,,,,,,1081.2260445000138,1086.2243244999554,1086.224330500001,1086.2407594999531,1098.2247154999059,1,active,44.8,1098.2248610999668,1101.4939642999088,35.000000000000156,3.25,1098.257584100007,,,,,,,,,,,,,,,,,,,,,,,,,,,,,,,,,,,,,,sub-038,46.3,44.8,47.2,COM3,2024-05-27_09h37.00.790,2024_RDpaindiscrimination_maintask,2023.2.3,59.99761206288793,2024-05-27 09h37.22.275461 -0400,
1,0,1,0,6,0,6,0,,,,,,,,,,,,,1101.507615600014,,,,,,,,1101.4947405999992,1106.4911614999874,1106.4911678999197,1106.5076709999703,1118.4915985999396,2,inactive,46.3,1118.4917438999983,1120.4096893999958,58.49999999999997,1.899,1118.5244581999723,,,,,,,,,,,,,,,,,,,,,,,,,,,,,,,,,,,,,,sub-038,46.3,44.8,47.2,COM3,2024-05-27_09h37.00.790,2024_RDpaindiscrimination_maintask,2023.2.3,59.99761206288793,2024-05-27 09h37.22.275461 -0400,
1,0,1,0,7,0,7,0,,,,,,,,,,,,,1120.4244925999083,,,,,,,,1120.410483899992,1125.4080408000154,1125.4080471999478,1125.424539099913,1137.4085269999923,3,active,44.8,1137.4086725999368,1138.9437802999746,31.50000000000003,1.517,1137.4413229000056,,,,,,,,,,,,,,,,,,,,,,,,,,,,,,,,,,,,,,sub-038,46.3,44.8,47.2,COM3,2024-05-27_09h37.00.790,2024_RDpaindiscrimination_maintask,2023.2.3,59.99761206288793,2024-05-27 09h37.22.275461 -0400,
1,0,1,0,8,0,8,0,,,,,,,,,,,,,1138.958008299931,,,,,,,,1138.9445561999455,1143.941601999919,1143.9416083999677,1143.9580710999435,1155.9419776999857,0,inactive,46.3,1155.9421261999523,1157.6269617999205,61.49999999999996,1.666,1155.9748589999508,,,,,,,,,,,,,,,,,,,,,,,,,,,,,,,,,,,,,,sub-038,46.3,44.8,47.2,COM3,2024-05-27_09h37.00.790,2024_RDpaindiscrimination_maintask,2023.2.3,59.99761206288793,2024-05-27 09h37.22.275461 -0400,
1,0,1,0,9,0,9,0,,,,,,,,,,,,,1157.6415957999416,,,,,,,,1157.627735999995,1162.625104799983,1162.6251116999192,1162.6416586999549,1174.6256251999876,1,active,44.8,1174.6257723999443,1176.7442712999182,37.000000000000085,2.1,1174.6584716999205,,,,,,,,,,,,,,,,,,,,,,,,,,,,,,,,,,,,,,sub-038,46.3,44.8,47.2,COM3,2024-05-27_09h37.00.790,2024_RDpaindiscrimination_maintask,2023.2.3,59.99761206288793,2024-05-27 09h37.22.275461 -0400,
1,0,1,0,10,0,10,0,,,,,,,,,,,,,1176.7584268999053,,,,,,,,1176.7450493999058,1181.7419758999022,1181.7419823999517,1181.7585396999493,1193.7424253999488,2,active,44.8,1193.7425696999999,1197.727426599944,14.000000000000075,3.964,1193.77526819997,,,,,,,,,,,,,,,,,,,,,,,,,,,,,,,,,,,,,,sub-038,46.3,44.8,47.2,COM3,2024-05-27_09h37.00.790,2024_RDpaindiscrimination_maintask,2023.2.3,59.99761206288793,2024-05-27 09h37.22.275461 -0400,
1,0,1,0,11,0,11,0,,,,,,,,,,,,,1197.7419907000149,,,,,,,,1197.7281807999825,1202.7255372999934,1202.725543999928,1202.742012499948,1214.725993399974,3,inactive,46.3,1214.7261513000121,1217.5608506000135,81.99999999999996,2.816,1214.7588638999732,,,,,,,,,,,,,,,,,,,,,,,,,,,,,,,,,,,,,,sub-038,46.3,44.8,47.2,COM3,2024-05-27_09h37.00.790,2024_RDpaindiscrimination_maintask,2023.2.3,59.99761206288793,2024-05-27 09h37.22.275461 -0400,
1,0,1,0,12,0,12,0,,,,,,,,,,,,,1217.5755546999862,,,,,,,,1217.5616329999175,1222.5590482999105,1222.5590545999585,1222.5755835999735,1234.55946759996,0,active,44.8,1234.5596168999327,1237.4612028999254,27.00000000000001,2.883,1234.5923355999403,,,,,,,,,,,,,,,,,,,,,,,,,,,,,,,,,,,,,,sub-038,46.3,44.8,47.2,COM3,2024-05-27_09h37.00.790,2024_RDpaindiscrimination_maintask,2023.2.3,59.99761206288793,2024-05-27 09h37.22.275461 -0400,
1,0,1,0,13,0,13,0,,,,,,,,,,,,,1237.4757443999406,,,,,,,,1237.4619762999937,1242.4592665999662,1242.459273400018,1242.475795299979,1254.4597812999273,1,inactive,46.3,1254.4599253999768,1256.9290249999613,58.99999999999993,2.45,1254.4926384999417,,,,,,,,,,,,,,,,,,,,,,,,,,,,,,,,,,,,,,sub-038,46.3,44.8,47.2,COM3,2024-05-27_09h37.00.790,2024_RDpaindiscrimination_maintask,2023.2.3,59.99761206288793,2024-05-27 09h37.22.275461 -0400,
1,0,1,0,14,0,14,0,,,,,,,,,,,,,1256.9425775000127,,,,,,,,1256.9300602999283,1261.9262438999722,1261.9262502999045,1261.9427447000053,1273.9266934999032,2,inactive,46.3,1273.9268392999656,1279.0797846999485,72.99999999999982,5.048,1274.0428844999988,,,,,,,,,,,,,,,,,,,,,,,,,,,,,,,,,,,,,,sub-038,46.3,44.8,47.2,COM3,2024-05-27_09h37.00.790,2024_RDpaindiscrimination_maintask,2023.2.3,59.99761206288793,2024-05-27 09h37.22.275461 -0400,
1,0,1,0,15,0,15,0,,,,,,,,,,,,,1279.0928944000043,,,,,,,,1279.0806182000088,1284.076514699962,1284.076521800016,1284.0929846999934,1296.0769328000024,3,active,44.8,1296.0770764999324,1300.562990800012,14.500000000000208,4.467,1296.1097394999815,,,,,,,,,,,,,,,,,,,,,,,,,,,,,,,,,,,,,,sub-038,46.3,44.8,47.2,COM3,2024-05-27_09h37.00.790,2024_RDpaindiscrimination_maintask,2023.2.3,59.99761206288793,2024-05-27 09h37.22.275461 -0400,
1,0,1,0,,,,,0,0,0,0,0,0,0,0,,,,,1333.1435143999988,,,,,,1331.094087400008,1333.1272832999239,,,,,,0,active,46.3,1350.127381599974,1352.6459864999633,41.00000000000001,2.499,,1300.5635702,1300.5765643999912,1331.0937650999986,1333.1275923999492,1338.1269319999265,1338.1269395999843,1338.1434506999794,1350.160230999929,1350.1273733999114,,,,,,,,,,,,,,,,,,,,,,,,,,,,,sub-038,46.3,44.8,47.2,COM3,2024-05-27_09h37.00.790,2024_RDpaindiscrimination_maintask,2023.2.3,59.99761206288793,2024-05-27 09h37.22.275461 -0400,
1,0,1,0,,,,,0,0,0,0,1,0,1,0,,,,,1352.6603961999062,,,,,,,,,,,,,1,inactive,46.3,1369.6442959000124,1372.7785191999283,54.999999999999886,3.116,,,,,1352.6467165999347,1357.644026999944,1357.6440379999112,1357.6605041999137,1369.677110999939,1369.6442881999537,,,,,,,,,,,,,,,,,,,,,,,,,,,,,sub-038,46.3,44.8,47.2,COM3,2024-05-27_09h37.00.790,2024_RDpaindiscrimination_maintask,2023.2.3,59.99761206288793,2024-05-27 09h37.22.275461 -0400,
1,0,1,0,,,,,0,0,0,0,,,,,0,0,0,0,1374.3939040999394,,,,,,,,,,,,,2,active,,,,,,,,,,,,,,,,1372.77902919997,1374.3775985999964,1374.3779309999663,1379.377379499958,1379.3773872000165,1379.393884699908,1387.377310999902,1387.377310999902,1390.3441089999396,1390.3774703999516,1390.3774703999516,1390.36096979992,4.6,4.2,459,420,8,1.2,0.75,pic-present,1,m,0.8601959999650717,None,,,,,sub-038,46.3,44.8,47.2,COM3,2024-05-27_09h37.00.790,2024_RDpaindiscrimination_maintask,2023.2.3,59.99761206288793,2024-05-27 09h37.22.275461 -0400,
1,0,1,0,,,,,0,0,0,0,,,,,1,0,1,0,1390.3774703999516,,,,,,,,,,,,,3,inactive,,,,,,,,,,,,,,,,,,1390.3615238999482,1395.3608758999035,1395.360883199959,1395.377391899936,1403.3609002999729,1403.3609002999729,1406.3275921000168,1406.3609596999595,1406.3609596999595,1406.3445115999784,3.87,4.93,387,493,8,1.2,0.75,pic-absent,1,m,0.8681631000945345,None,,,,,sub-038,46.3,44.8,47.2,COM3,2024-05-27_09h37.00.790,2024_RDpaindiscrimination_maintask,2023.2.3,59.99761206288793,2024-05-27 09h37.22.275461 -0400,
1,0,1,0,,,,,0,0,0,0,,,,,2,0,2,0,1406.3609596999595,,,,,,,,,,,,,0,inactive,,,,,,,,,,,,,,,,,,1406.3449591000099,1411.344386999961,1411.344394500018,1411.360895599937,1419.34434099996,1419.34434099996,1422.3110303999856,1422.3443479000125,1422.3443479000125,1422.3278569999384,3.7,5.1,370,509,8,1.2,0.75,pic-absent,0,n,0.9287685999879614,None,,,,,sub-038,46.3,44.8,47.2,COM3,2024-05-27_09h37.00.790,2024_RDpaindiscrimination_maintask,2023.2.3,59.99761206288793,2024-05-27 09h37.22.275461 -0400,
1,0,1,0,,,,,0,0,0,0,,,,,3,0,3,0,1422.3443479000125,,,,,,,,,,,,,1,active,,,,,,,,,,,,,,,,,,1422.3283736999147,1427.3280068999156,1427.3280130999628,1427.3443954999093,1435.327823099913,1435.327823099913,1438.2945187999867,1438.3278535999125,1438.3278535999125,1438.3113714999054,3.95,4.85,395,484,8,1.2,0.75,pic-present,0,n,1.2210750000085682,None,,,,,sub-038,46.3,44.8,47.2,COM3,2024-05-27_09h37.00.790,2024_RDpaindiscrimination_maintask,2023.2.3,59.99761206288793,2024-05-27 09h37.22.275461 -0400,
1,0,1,0,,,,,1,0,1,0,0,0,0,0,,,,,1440.9445493000094,,,,,,1438.3119122999487,1440.9282617999706,,,,,,2,inactive,46.3,1457.9284308999777,1460.6466753999703,47.99999999999991,2.7,,,,,1440.9286100999452,1445.9281274999958,1445.928134799935,1445.9446046999656,1457.9614333999343,1457.928422399913,,,,,,,,,,,,,,,,,,,,,,,,,,,,,sub-038,46.3,44.8,47.2,COM3,2024-05-27_09h37.00.790,2024_RDpaindiscrimination_maintask,2023.2.3,59.99761206288793,2024-05-27 09h37.22.275461 -0400,
1,0,1,0,,,,,1,0,1,0,1,0,1,0,,,,,1460.6614721999504,,,,,,,,,,,,,3,active,46.3,1477.645471900003,1479.5468323999085,70.49999999999993,1.883,,,,,1460.6474926999072,1465.6450081999646,1465.6450154999038,1465.661532399943,1477.6783125000075,1477.6454636999406,,,,,,,,,,,,,,,,,,,,,,,,,,,,,sub-038,46.3,44.8,47.2,COM3,2024-05-27_09h37.00.790,2024_RDpaindiscrimination_maintask,2023.2.3,59.99761206288793,2024-05-27 09h37.22.275461 -0400,
1,0,1,0,,,,,1,0,1,0,,,,,0,0,0,0,1482.1616766999941,,,,,,,,,,,,,0,inactive,,,,,,,,,,,,,,,,1479.5473600999685,1482.1453639999963,1482.145674899919,1487.145240199985,1487.1452473999234,1487.1617414999055,1495.1451841999078,1495.1451841999078,1498.11196010001,1498.1451991999056,1498.1451991999056,1498.1287022000179,4.42,4.38,442,438,8,1.2,0.75,pic-absent,0,n,0.9840303000528365,None,,,,,sub-038,46.3,44.8,47.2,COM3,2024-05-27_09h37.00.790,2024_RDpaindiscrimination_maintask,2023.2.3,59.99761206288793,2024-05-27 09h37.22.275461 -0400,
1,0,1,0,,,,,1,0,1,0,,,,,1,0,1,0,1498.1451991999056,,,,,,,,,,,,,1,active,,,,,,,,,,,,,,,,,,1498.1292643999914,1503.1287403999595,1503.1287476000143,1503.145250499947,1511.1286669999827,1511.1286669999827,1514.095366399968,1514.1286948999623,1514.1286948999623,1514.1122110999422,4.61,4.19,461,419,8,1.2,0.75,pic-absent,0,n,0.9007852000650018,None,,,,,sub-038,46.3,44.8,47.2,COM3,2024-05-27_09h37.00.790,2024_RDpaindiscrimination_maintask,2023.2.3,59.99761206288793,2024-05-27 09h37.22.275461 -0400,
1,0,1,0,,,,,1,0,1,0,,,,,2,0,2,0,1514.1286948999623,,,,,,,,,,,,,2,inactive,,,,,,,,,,,,,,,,,,1514.112667099922,1519.1122099999338,1519.1122172999894,1519.1287163000088,1527.1121443000156,1527.1121443000156,1530.0788795999251,1530.1121639999328,1530.1121639999328,1530.0956753999926,4.58,4.22,458,422,8,1.2,0.75,pic-present,1,m,0.9613057000096887,None,,,,,sub-038,46.3,44.8,47.2,COM3,2024-05-27_09h37.00.790,2024_RDpaindiscrimination_maintask,2023.2.3,59.99761206288793,2024-05-27 09h37.22.275461 -0400,
1,0,1,0,,,,,1,0,1,0,,,,,3,0,3,0,1530.1121639999328,,,,,,,,,,,,,3,inactive,,,,,,,,,,,,,,,,,,1530.096220599953,1535.0957385000074,1535.0957458999474,1535.1122291999636,1543.0974609999685,1543.0974609999685,1546.0623324000044,1546.1123397999909,1546.1123397999909,1546.0959315999644,4.59,4.21,459,421,8,1.2,0.75,pic-absent,0,n,0.9197415000526235,None,,,,,sub-038,46.3,44.8,47.2,COM3,2024-05-27_09h37.00.790,2024_RDpaindiscrimination_maintask,2023.2.3,59.99761206288793,2024-05-27 09h37.22.275461 -0400,
1,0,1,0,,,,,2,0,2,0,0,0,0,0,,,,,1547.4790268999059,,,,,,1546.0964143999154,1547.4626577999443,,,,,,0,active,46.3,1564.4628972999053,1567.930378299905,40.50000000000014,3.449,,,,,1547.4629754999187,1552.4625695999712,1552.4625767999096,1552.479070500005,1564.495869699982,1564.4628886999562,,,,,,,,,,,,,,,,,,,,,,,,,,,,,sub-038,46.3,44.8,47.2,COM3,2024-05-27_09h37.00.790,2024_RDpaindiscrimination_maintask,2023.2.3,59.99761206288793,2024-05-27 09h37.22.275461 -0400,
1,0,1,0,,,,,2,0,2,0,1,0,1,0,,,,,1567.9459105000133,,,,,,,,,,,,,1,inactive,46.3,1584.9300507999724,1587.4163354999619,55.99999999999995,2.467,,,,,1567.9306220000144,1572.9294730999973,1572.9294797999319,1572.9459920999361,1584.962892199983,1584.9300428999122,,,,,,,,,,,,,,,,,,,,,,,,,,,,,sub-038,46.3,44.8,47.2,COM3,2024-05-27_09h37.00.790,2024_RDpaindiscrimination_maintask,2023.2.3,59.99761206288793,2024-05-27 09h37.22.275461 -0400,
1,0,1,0,,,,,2,0,2,0,,,,,0,0,0,0,1589.7128512999043,,,,,,,,,,,,,2,active,,,,,,,,,,,,,,,,1587.4168923000107,1589.6964642999228,1589.6967967000091,1594.696436899947,1594.6964447000064,1594.712886699941,1602.6963117999258,1602.6963117999258,1605.6630069999956,1605.6963455999503,1605.6963455999503,1605.6799079999328,3.3,5.5,330,550,8,1.2,0.75,pic-absent,1,m,0.7449124000268057,None,,,,,sub-038,46.3,44.8,47.2,COM3,2024-05-27_09h37.00.790,2024_RDpaindiscrimination_maintask,2023.2.3,59.99761206288793,2024-05-27 09h37.22.275461 -0400,
1,0,1,0,,,,,2,0,2,0,,,,,1,0,1,0,1605.6963455999503,,,,,,,,,,,,,3,inactive,,,,,,,,,,,,,,,,,,1605.6804614999564,1610.6798939999426,1610.6799011999974,1610.6963620999595,1618.679810200003,1618.679810200003,1621.6465171999298,1621.6798932999372,1621.6798932999372,1621.6633638999192,3.8,5.0,380,500,8,1.2,0.75,pic-present,1,m,0.4248320000478998,None,,,,,sub-038,46.3,44.8,47.2,COM3,2024-05-27_09h37.00.790,2024_RDpaindiscrimination_maintask,2023.2.3,59.99761206288793,2024-05-27 09h37.22.275461 -0400,
1,0,1,0,,,,,2,0,2,0,,,,,2,0,2,0,1621.6798932999372,,,,,,,,,,,,,0,active,,,,,,,,,,,,,,,,,,1621.663818800007,1626.6634514000034,1626.6634583999403,1626.6798945999471,1634.6633516999427,1634.6633516999427,1637.6300218999386,1637.6634266999317,1637.6634266999317,1637.6468585999683,4.49,4.31,449,430,8,1.2,0.75,pic-present,0,n,0.4860728000057861,None,,,,,sub-038,46.3,44.8,47.2,COM3,2024-05-27_09h37.00.790,2024_RDpaindiscrimination_maintask,2023.2.3,59.99761206288793,2024-05-27 09h37.22.275461 -0400,
1,0,1,0,,,,,2,0,2,0,,,,,3,0,3,0,1637.6634266999317,,,,,,,,,,,,,1,active,,,,,,,,,,,,,,,,,,1637.6473512999946,1642.6469526999863,1642.6469598999247,1642.6634065000108,1650.6468135999748,1650.6468135999748,1653.6135994999204,1653.6468821999151,1653.6468821999151,1653.630450699944,3.49,5.31,349,531,8,1.2,0.75,pic-absent,0,n,1.1980914000887424,None,,,,,sub-038,46.3,44.8,47.2,COM3,2024-05-27_09h37.00.790,2024_RDpaindiscrimination_maintask,2023.2.3,59.99761206288793,2024-05-27 09h37.22.275461 -0400,
1,0,1,0,,,,,3,0,3,0,0,0,0,0,,,,,1654.8302869999316,,,,,,1653.630963100004,1654.8138879999751,,,,,,2,inactive,46.3,1671.8140379999531,1674.5483547999756,55.99999999999995,2.716,,,,,1654.8142307999078,1659.813841199968,1659.8138482999057,1659.8302271999419,1671.847025099909,1671.8140297000064,,,,,,,,,,,,,,,,,,,,,,,,,,,,,sub-038,46.3,44.8,47.2,COM3,2024-05-27_09h37.00.790,2024_RDpaindiscrimination_maintask,2023.2.3,59.99761206288793,2024-05-27 09h37.22.275461 -0400,
1,0,1,0,,,,,3,0,3,0,1,0,1,0,,,,,1674.5637143999338,,,,,,,,,,,,,3,active,46.3,1691.547776099993,1693.433529999922,66.99999999999991,1.867,,,,,1674.5490603999933,1679.5472462999169,1679.5472536999732,1679.5637749999296,1691.5806666999124,1691.5477681999328,,,,,,,,,,,,,,,,,,,,,,,,,,,,,sub-038,46.3,44.8,47.2,COM3,2024-05-27_09h37.00.790,2024_RDpaindiscrimination_maintask,2023.2.3,59.99761206288793,2024-05-27 09h37.22.275461 -0400,
1,0,1,0,,,,,3,0,3,0,,,,,0,0,0,0,1694.1140459999442,,,,,,,,,,,,,0,inactive,,,,,,,,,,,,,,,,1693.4340869999724,1694.0976169999922,1694.0979469999438,1699.097705699969,1699.097713099909,1699.114008500008,1707.097507199971,1707.097507199971,1710.064149599988,1710.0974761999678,1710.0974761999678,1710.0809783999575,4.0,4.8,400,480,8,1.2,0.75,pic-present,0,n,1.1431891000829637,None,,,,,sub-038,46.3,44.8,47.2,COM3,2024-05-27_09h37.00.790,2024_RDpaindiscrimination_maintask,2023.2.3,59.99761206288793,2024-05-27 09h37.22.275461 -0400,
1,0,1,0,,,,,3,0,3,0,,,,,1,0,1,0,1710.0974761999678,,,,,,,,,,,,,1,active,,,,,,,,,,,,,,,,,,1710.081499599968,1715.080996899982,1715.081004699925,1715.097578899935,1723.0809388000052,1723.0809388000052,1726.047799599939,1726.081013499992,1726.081013499992,1726.0645062999101,3.98,4.82,398,482,8,1.2,0.75,pic-present,1,m,0.7803552000550553,None,,,,,sub-038,46.3,44.8,47.2,COM3,2024-05-27_09h37.00.790,2024_RDpaindiscrimination_maintask,2023.2.3,59.99761206288793,2024-05-27 09h37.22.275461 -0400,
1,0,1,0,,,,,3,0,3,0,,,,,2,0,2,0,1726.081013499992,,,,,,,,,,,,,2,active,,,,,,,,,,,,,,,,,,1726.0649669999257,1731.0645188000053,1731.0645256999414,1731.0810649999185,1739.0644526999677,1739.0644526999677,1742.0311515999492,1742.0644710999914,1742.0644710999914,1742.048027599929,3.52,5.28,352,528,8,1.2,0.75,pic-absent,0,n,0.412452100077644,None,,,,,sub-038,46.3,44.8,47.2,COM3,2024-05-27_09h37.00.790,2024_RDpaindiscrimination_maintask,2023.2.3,59.99761206288793,2024-05-27 09h37.22.275461 -0400,
1,0,1,0,,,,,3,0,3,0,,,,,3,0,3,0,1742.0644710999914,,,,,,,,,,,,,3,inactive,,,,,,,,,,,,,,,,,,1742.0484833999071,1747.0480695000151,1747.0480779999634,1747.0645178999985,1755.0479321000166,1755.0479321000166,1758.0146411999594,1758.0480019999668,1758.0480019999668,1758.0315004999284,3.32,5.48,332,548,8,1.2,0.75,pic-present,0,n,0.6573663000017405,None,,,,,sub-038,46.3,44.8,47.2,COM3,2024-05-27_09h37.00.790,2024_RDpaindiscrimination_maintask,2023.2.3,59.99761206288793,2024-05-27 09h37.22.275461 -0400,
,,,,,,,,,,,,,,,,,,,,,,,,,,,,,,,,,,,,,,,,,,,,,,,,,,,,,,,,,,,,,,,,,,,,,,,,,,1758.032024999964,1765.2150442999555,1765.2150664000073,1775.2149423999945,,,,,,,,,,,
