trials.thisRepN,trials.thisTrialN,trials.thisN,trials.thisIndex,loop_test.thisRepN,loop_test.thisTrialN,loop_test.thisN,loop_test.thisIndex,loop_eval_discri.thisRepN,loop_eval_discri.thisTrialN,loop_eval_discri.thisN,loop_eval_discri.thisIndex,loop_eval.thisRepN,loop_eval.thisTrialN,loop_eval.thisN,loop_eval.thisIndex,loop_discri.thisRepN,loop_discri.thisTrialN,loop_discri.thisN,loop_discri.thisIndex,thisRow.t,notes,Set_up.started,Set_up.stopped,electrode_check.started,electrode_check.stopped,instructions_eval.started,instructions_eval.stopped,pause_5_test.started,pause_5_test.stopped,Phase_Test.started,thermode_locali.started,thermode_locali.stopped,Phase_Test.stopped,loca_thermode,condition,temp_trial_sent,eval_douleur.started,eval_douleur.stopped,ratingScale.response,ratingScale.rt,Fin_test.started,text.started,Fin_test.stopped,pause_5_EVA.started,pause_5_EVA.stopped,tâche_EVA.started,thermode_locali_EVA.started,thermode_locali_EVA.stopped,tâche_EVA.stopped,instructions_discrim.started,instructions_discrim.stopped,pause_5_pic.started,pause_5_pic.stopped,tâche_PIC.started,thermode_locali_pic.started,percu_or.started,responser.started,percu_or.stopped,responser.stopped,thermode_locali_pic.stopped,tâche_PIC.stopped,dur_plateau1,dur_plateau2,dur_plateau1_sent,dur_plateau2_sent,start_plateau_2_resp,dur_pic,dur_rise,pic_presence,pic_response,discrimin_resp.keys,discrimin_resp.rt,discrimin_resp.duration,break_entre_bloc.started,break_entre_bloc.stopped,merci.started,merci.stopped,participant,temp_flat,temp_active,temp_pic_set,com_thermode,date,expName,psychopyVersion,frameRate,expStart,
0,0,0,0,0,0,0,0,,,,,,,,,,,,,149.7112214000008,,0.007905400001618546,144.21202480000284,144.21272500000123,146.97886110000036,146.97887600000104,149.69546590000027,149.69608380000136,154.69519690000016,154.6952095000015,154.71132480000233,164.7949105000007,164.69585759999973,0,inactive,47.3,164.6958725000004,167.61366140000246,33.00000000000003,2.834,,,,,,,,,,,,,,,,,,,,,,,,,,,,,,,,,,,,,,sub-002,47.3,42.4,48.8,COM3,2024-01-23_15h00.05.096,2024_RDpaindiscrimination_maintask,2023.2.3,59.99671218045638,2024-01-23 15h00.31.940298 -0500,
0,0,0,0,1,0,1,0,,,,,,,,,,,,,167.62829690000217,,,,,,,,167.61464820000037,172.6122639999994,172.6122757000012,172.62841910000134,182.69532620000246,182.61295450000034,1,inactive,47.3,182.6129690000016,185.7307949999995,32.000000000000064,3.047,,,,,,,,,,,,,,,,,,,,,,,,,,,,,,,,,,,,,,sub-002,47.3,42.4,48.8,COM3,2024-01-23_15h00.05.096,2024_RDpaindiscrimination_maintask,2023.2.3,59.99671218045638,2024-01-23 15h00.31.940298 -0500,
0,0,0,0,2,0,2,0,,,,,,,,,,,,,185.745392300003,,,,,,,,185.73187859999962,190.72932930000024,190.72934069999974,190.74551030000293,200.81241720000253,200.73006019999957,2,active,42.4,200.730075200001,205.74841630000083,2.5000000000002003,4.948,,,,,,,,,,,,,,,,,,,,,,,,,,,,,,,,,,,,,,sub-002,47.3,42.4,48.8,COM3,2024-01-23_15h00.05.096,2024_RDpaindiscrimination_maintask,2023.2.3,59.99671218045638,2024-01-23 15h00.31.940298 -0500,
0,0,0,0,3,0,3,0,,,,,,,,,,,,,205.77920730000187,,,,,,,,205.75016550000146,210.76267700000244,210.76268840000193,210.7792928000017,,220.76291960000162,3,active,42.4,220.76293440000154,226.81472680000297,1.5000000000000002,5.981,,,,,,,,,,,,,,,,,,,,,,,,,,,,,,,,,,,,,,sub-002,47.3,42.4,48.8,COM3,2024-01-23_15h00.05.096,2024_RDpaindiscrimination_maintask,2023.2.3,59.99671218045638,2024-01-23 15h00.31.940298 -0500,
0,0,0,0,4,0,4,0,,,,,,,,,,,,,226.84636090000276,,,,,,,,226.8159495,231.8298496000025,231.82986060000258,231.84642800000074,,241.83009460000176,0,inactive,47.3,241.83010950000244,246.18359810000038,25.000000000000195,4.283,,,,,,,,,,,,,,,,,,,,,,,,,,,,,,,,,,,,,,sub-002,47.3,42.4,48.8,COM3,2024-01-23_15h00.05.096,2024_RDpaindiscrimination_maintask,2023.2.3,59.99671218045638,2024-01-23 15h00.31.940298 -0500,
0,0,0,0,5,0,5,0,,,,,,,,,,,,,246.19680900000094,,,,,,,,246.18417799999952,251.18077110000013,251.1807828000019,251.19690660000197,261.2638248000003,261.18138980000003,1,active,42.4,261.1814048000015,265.9672664000027,0.0,4.716,,,,,,,,,,,,,,,,,,,,,,,,,,,,,,,,,,,,,,sub-002,47.3,42.4,48.8,COM3,2024-01-23_15h00.05.096,2024_RDpaindiscrimination_maintask,2023.2.3,59.99671218045638,2024-01-23 15h00.31.940298 -0500,
0,0,0,0,6,0,6,0,,,,,,,,,,,,,265.9805987,,,,,,,,265.96784820000175,270.9645805,270.96459250000044,270.98069750000286,281.0476208,280.9650733000017,2,active,42.4,280.96509460000016,285.5998658999997,1.5000000000001297,4.564,,,,,,,,,,,,,,,,,,,,,,,,,,,,,,,,,,,,,,sub-002,47.3,42.4,48.8,COM3,2024-01-23_15h00.05.096,2024_RDpaindiscrimination_maintask,2023.2.3,59.99671218045638,2024-01-23 15h00.31.940298 -0500,
0,0,0,0,7,0,7,0,,,,,,,,,,,,,285.6143986999996,,,,,,,,285.6004439999997,290.59845549999955,290.5984672000013,290.6145136000014,300.6814095000009,300.5990512999997,3,inactive,47.3,300.59906709999996,304.06716790000064,45.499999999999915,3.398,,,,,,,,,,,,,,,,,,,,,,,,,,,,,,,,,,,,,,sub-002,47.3,42.4,48.8,COM3,2024-01-23_15h00.05.096,2024_RDpaindiscrimination_maintask,2023.2.3,59.99671218045638,2024-01-23 15h00.31.940298 -0500,
0,0,0,0,8,0,8,0,,,,,,,,,,,,,304.09820580000087,,,,,,,,304.06890589999966,309.0816527999996,309.08166429999983,309.09825679999994,,319.0819033000007,0,active,42.4,319.08191910000096,323.5502367000008,0.0,4.398,,,,,,,,,,,,,,,,,,,,,,,,,,,,,,,,,,,,,,sub-002,47.3,42.4,48.8,COM3,2024-01-23_15h00.05.096,2024_RDpaindiscrimination_maintask,2023.2.3,59.99671218045638,2024-01-23 15h00.31.940298 -0500,
0,0,0,0,9,0,9,0,,,,,,,,,,,,,323.5653947999999,,,,,,,,323.55144830000063,328.54925580000054,328.54926759999944,328.5653818999999,338.6322964000028,338.5498866000016,1,active,42.4,338.54990100000214,341.4670987999998,0.0,2.847,,,,,,,,,,,,,,,,,,,,,,,,,,,,,,,,,,,,,,sub-002,47.3,42.4,48.8,COM3,2024-01-23_15h00.05.096,2024_RDpaindiscrimination_maintask,2023.2.3,59.99671218045638,2024-01-23 15h00.31.940298 -0500,
0,0,0,0,10,0,10,0,,,,,,,,,,,,,341.4824488000013,,,,,,,,341.46830430000045,346.4663447000021,346.4663564000002,346.48246570000265,356.54938870000115,356.4669685000008,2,inactive,47.3,356.46698319999996,358.9190895000029,59.49999999999993,2.382,,,,,,,,,,,,,,,,,,,,,,,,,,,,,,,,,,,,,,sub-002,47.3,42.4,48.8,COM3,2024-01-23_15h00.05.096,2024_RDpaindiscrimination_maintask,2023.2.3,59.99671218045638,2024-01-23 15h00.31.940298 -0500,
0,0,0,0,11,0,11,0,,,,,,,,,,,,,358.94957200000135,,,,,,,,358.92079469999953,363.9329390000021,363.93295000000217,363.9495545000027,,373.93316120000236,3,inactive,47.3,373.9331764000017,376.86828819999937,30.49999999999997,2.865,,,,,,,,,,,,,,,,,,,,,,,,,,,,,,,,,,,,,,sub-002,47.3,42.4,48.8,COM3,2024-01-23_15h00.05.096,2024_RDpaindiscrimination_maintask,2023.2.3,59.99671218045638,2024-01-23 15h00.31.940298 -0500,
0,0,0,0,12,0,12,0,,,,,,,,,,,,,376.8833082000019,,,,,,,,376.8694929000012,381.8671319999994,381.86714380000194,381.8832928000011,391.9501992000005,391.8678758999995,0,active,42.4,391.86789090000093,396.20320410000204,1.5000000000000002,4.265,,,,,,,,,,,,,,,,,,,,,,,,,,,,,,,,,,,,,,sub-002,47.3,42.4,48.8,COM3,2024-01-23_15h00.05.096,2024_RDpaindiscrimination_maintask,2023.2.3,59.99671218045638,2024-01-23 15h00.31.940298 -0500,
0,0,0,0,13,0,13,0,,,,,,,,,,,,,396.2170772000027,,,,,,,,396.2044062999994,401.2009478,401.20095960000253,401.21707660000175,411.2840004000027,411.2016340000009,1,inactive,47.3,411.2016487000001,414.820888000002,58.49999999999987,3.549,,,,,,,,,,,,,,,,,,,,,,,,,,,,,,,,,,,,,,sub-002,47.3,42.4,48.8,COM3,2024-01-23_15h00.05.096,2024_RDpaindiscrimination_maintask,2023.2.3,59.99671218045638,2024-01-23 15h00.31.940298 -0500,
0,0,0,0,14,0,14,0,,,,,,,,,,,,,414.834198200002,,,,,,,,414.82213740000225,419.81817349999983,419.81818620000195,419.83431460000065,429.9010866000026,429.8187539999999,2,inactive,47.3,429.8187693,433.08819770000264,60.99999999999996,3.199,,,,,,,,,,,,,,,,,,,,,,,,,,,,,,,,,,,,,,sub-002,47.3,42.4,48.8,COM3,2024-01-23_15h00.05.096,2024_RDpaindiscrimination_maintask,2023.2.3,59.99671218045638,2024-01-23 15h00.31.940298 -0500,
0,0,0,0,15,0,15,0,,,,,,,,,,,,,433.11785520000194,,,,,,,,433.0898997000004,438.10134370000014,438.10135459999947,438.1180501000017,,448.1015862000022,3,active,42.4,448.1016015000023,451.8198878000003,5.000000000000022,3.623,,,,,,,,,,,,,,,,,,,,,,,,,,,,,,,,,,,,,,sub-002,47.3,42.4,48.8,COM3,2024-01-23_15h00.05.096,2024_RDpaindiscrimination_maintask,2023.2.3,59.99671218045638,2024-01-23 15h00.31.940298 -0500,
0,0,0,0,,,,,0,0,0,0,0,0,0,0,,,,,476.48552870000276,,,,,,474.2203573000006,476.46975250000105,,,,,,,0,active,,491.4701789000028,496.4057149,23.500000000000068,4.865,451.820271200002,451.8349506000013,474.2196900000017,476.4703651000018,481.4694546000028,481.46946740000203,481.4856441000011,491.5525349000018,491.4701650999996,,,,,,,,,,,,,,,,,,,,,,,,,,,,,sub-002,47.3,42.4,48.8,COM3,2024-01-23_15h00.05.096,2024_RDpaindiscrimination_maintask,2023.2.3,59.99671218045638,2024-01-23 15h00.31.940298 -0500,
0,0,0,0,,,,,0,0,0,0,1,0,1,0,,,,,496.4361114000021,,,,,,,,,,,,,,1,inactive,,511.41973020000296,514.1385012000028,46.00000000000005,2.647,,,,496.40730389999953,501.419493100002,501.41950480000014,501.43611370000144,,511.41971750000084,,,,,,,,,,,,,,,,,,,,,,,,,,,,,sub-002,47.3,42.4,48.8,COM3,2024-01-23_15h00.05.096,2024_RDpaindiscrimination_maintask,2023.2.3,59.99671218045638,2024-01-23 15h00.31.940298 -0500,
0,0,0,0,,,,,0,0,0,0,,,,,0,0,0,0,525.6033459000028,,,,,,,,,,,,,,2,active,,,,,,,,,,,,,,,514.1388363000005,525.5876956000029,525.5883463000027,530.5872861999997,530.5872992000004,530.6034711000029,538.0869739000009,538.0869739000009,541.0870429000024,541.0870429000024,541.5537140000015,541.5375719000003,4.04,4.01,479,401,7.5,1.2,0.75,pic-absent,0,n,1.1443216000006942,None,,,,,sub-002,47.3,42.4,48.8,COM3,2024-01-23_15h00.05.096,2024_RDpaindiscrimination_maintask,2023.2.3,59.99671218045638,2024-01-23 15h00.31.940298 -0500,
0,0,0,0,,,,,0,0,0,0,,,,,1,0,1,0,541.5537140000015,,,,,,,,,,,,,,3,inactive,,,,,,,,,,,,,,,,,541.5395761,546.5376904000004,546.5377036999998,546.5539191999997,554.0539930000014,554.0539930000014,557.0540747000014,557.0540747000014,557.5040926000001,557.4878969000019,3.9,4.15,465,415,7.5,1.2,0.75,pic-present,1,m,0.8893122000008589,None,,,,,sub-002,47.3,42.4,48.8,COM3,2024-01-23_15h00.05.096,2024_RDpaindiscrimination_maintask,2023.2.3,59.99671218045638,2024-01-23 15h00.31.940298 -0500,
0,0,0,0,,,,,0,0,0,0,,,,,2,0,2,0,557.5040926000001,,,,,,,,,,,,,,0,inactive,,,,,,,,,,,,,,,,,557.4894644000015,562.4880523000029,562.4880674000015,562.5042133000024,570.0043638999996,570.0043638999996,573.0044379000028,573.0044379000028,573.4544497000024,573.438319500001,3.55,4.5,430,450,7.5,1.2,0.75,pic-absent,0,n,1.259034700000484,None,,,,,sub-002,47.3,42.4,48.8,COM3,2024-01-23_15h00.05.096,2024_RDpaindiscrimination_maintask,2023.2.3,59.99671218045638,2024-01-23 15h00.31.940298 -0500,
0,0,0,0,,,,,0,0,0,0,,,,,3,0,3,0,573.4544497000024,,,,,,,,,,,,,,1,active,,,,,,,,,,,,,,,,,573.4398669000002,578.4384427000005,578.4384554000026,578.4545648000021,585.9547402000026,585.9547402000026,588.954830900002,588.954830900002,589.4048395000027,589.3886639000011,4.01,4.04,476,404,7.5,1.2,0.75,pic-present,1,m,0.9284114000001864,None,,,,,sub-002,47.3,42.4,48.8,COM3,2024-01-23_15h00.05.096,2024_RDpaindiscrimination_maintask,2023.2.3,59.99671218045638,2024-01-23 15h00.31.940298 -0500,
0,0,0,0,,,,,1,0,1,0,0,0,0,0,,,,,592.5882286000015,,,,,,589.3902482000012,592.5726552000015,,,,,,,2,inactive,,607.5729100000026,610.8426612000003,27.500000000000078,3.199,,,,592.5732910000006,597.5721819999999,597.5721946000012,597.5883627000003,607.6552564000012,607.5728980000022,,,,,,,,,,,,,,,,,,,,,,,,,,,,,sub-002,47.3,42.4,48.8,COM3,2024-01-23_15h00.05.096,2024_RDpaindiscrimination_maintask,2023.2.3,59.99671218045638,2024-01-23 15h00.31.940298 -0500,
0,0,0,0,,,,,1,0,1,0,1,0,1,0,,,,,610.8720337000013,,,,,,,,,,,,,,3,active,,625.8557277,630.1920783999994,8.000000000000167,4.266,,,,610.8442565000005,615.8555283000023,615.8555397000018,615.8721102000018,,625.8557153000002,,,,,,,,,,,,,,,,,,,,,,,,,,,,,sub-002,47.3,42.4,48.8,COM3,2024-01-23_15h00.05.096,2024_RDpaindiscrimination_maintask,2023.2.3,59.99671218045638,2024-01-23 15h00.31.940298 -0500,
0,0,0,0,,,,,1,0,1,0,,,,,0,0,0,0,633.2891808000022,,,,,,,,,,,,,,0,inactive,,,,,,,,,,,,,,,630.1929985999996,633.2734899000025,633.274159200002,638.2731691000008,638.2731820000008,638.2893221000013,645.7728252000015,645.7728252000015,648.7728922000024,648.7728922000024,649.2395758000021,649.2233964000006,3.36,4.69,411,469,7.5,1.2,0.75,pic-absent,0,n,1.2859575000002224,None,,,,,sub-002,47.3,42.4,48.8,COM3,2024-01-23_15h00.05.096,2024_RDpaindiscrimination_maintask,2023.2.3,59.99671218045638,2024-01-23 15h00.31.940298 -0500,
0,0,0,0,,,,,1,0,1,0,,,,,1,0,1,0,649.2395758000021,,,,,,,,,,,,,,1,active,,,,,,,,,,,,,,,,,649.2250930000009,654.2236075000001,654.2236206000016,654.2399374000015,661.7398490000014,661.7398490000014,664.7399413000021,664.7399413000021,665.1899503000022,665.1737424000021,3.42,4.63,417,463,7.5,1.2,0.75,pic-present,1,m,0.8473682000003464,None,,,,,sub-002,47.3,42.4,48.8,COM3,2024-01-23_15h00.05.096,2024_RDpaindiscrimination_maintask,2023.2.3,59.99671218045638,2024-01-23 15h00.31.940298 -0500,
0,0,0,0,,,,,1,0,1,0,,,,,2,0,2,0,665.1899503000022,,,,,,,,,,,,,,2,inactive,,,,,,,,,,,,,,,,,665.1752903000015,670.1738824000022,670.1738949000028,670.1902555000015,677.6902030000019,677.6902030000019,680.6903106999998,680.6903106999998,681.1403232000011,681.1241211000015,4.18,3.87,493,387,7.5,1.2,0.75,pic-present,1,m,1.0761397999995097,None,,,,,sub-002,47.3,42.4,48.8,COM3,2024-01-23_15h00.05.096,2024_RDpaindiscrimination_maintask,2023.2.3,59.99671218045638,2024-01-23 15h00.31.940298 -0500,
0,0,0,0,,,,,1,0,1,0,,,,,3,0,3,0,681.1403232000011,,,,,,,,,,,,,,3,inactive,,,,,,,,,,,,,,,,,681.1256662000014,686.1242663000012,686.1242788000018,686.1404432000018,693.6405778000008,693.6405778000008,696.6406815000009,696.6406815000009,697.0906761000006,697.0745392999997,3.85,4.2,460,420,7.5,1.2,0.75,pic-absent,0,n,1.4017845999987912,None,,,,,sub-002,47.3,42.4,48.8,COM3,2024-01-23_15h00.05.096,2024_RDpaindiscrimination_maintask,2023.2.3,59.99671218045638,2024-01-23 15h00.31.940298 -0500,
0,0,0,0,,,,,2,0,2,0,0,0,0,0,,,,,701.5907915999996,,,,,,697.0761065000006,701.5750767999998,,,,,,,0,inactive,,716.5754729,721.0944433000004,29.000000000000146,4.449,,,,701.5757002999999,706.5747405000002,706.5747536000017,706.5909174000008,716.6578074000026,716.5754608999996,,,,,,,,,,,,,,,,,,,,,,,,,,,,,sub-002,47.3,42.4,48.8,COM3,2024-01-23_15h00.05.096,2024_RDpaindiscrimination_maintask,2023.2.3,59.99671218045638,2024-01-23 15h00.31.940298 -0500,
0,0,0,0,,,,,2,0,2,0,1,0,1,0,,,,,721.1246172000028,,,,,,,,,,,,,,1,active,,736.1083476000022,740.2617430000028,22.500000000000206,3.995,,,,721.0960049000023,726.1080929000018,726.1081045000028,726.1246718000002,,736.1083347000022,,,,,,,,,,,,,,,,,,,,,,,,,,,,,sub-002,47.3,42.4,48.8,COM3,2024-01-23_15h00.05.096,2024_RDpaindiscrimination_maintask,2023.2.3,59.99671218045638,2024-01-23 15h00.31.940298 -0500,
0,0,0,0,,,,,2,0,2,0,,,,,0,0,0,0,743.4250969000022,,,,,,,,,,,,,,2,active,,,,,,,,,,,,,,,740.262678500003,743.4094053000008,743.4100571000017,748.4090541000005,748.4090668000026,748.4252116000025,755.9087375000017,755.9087375000017,758.9088119000007,758.9088119000007,759.3754757999995,759.3593113999996,3.34,4.71,409,471,7.5,1.2,0.75,pic-present,1,m,1.218239599998924,None,,,,,sub-002,47.3,42.4,48.8,COM3,2024-01-23_15h00.05.096,2024_RDpaindiscrimination_maintask,2023.2.3,59.99671218045638,2024-01-23 15h00.31.940298 -0500,
0,0,0,0,,,,,2,0,2,0,,,,,1,0,1,0,759.3754757999995,,,,,,,,,,,,,,3,inactive,,,,,,,,,,,,,,,,,759.3609926999998,764.3594569000015,764.3594698000015,764.3755672000007,771.8757774000005,771.8757774000005,774.8758076000013,774.8758076000013,775.3258440000027,775.3096571999995,3.47,4.58,422,458,7.5,1.2,0.75,pic-absent,0,n,1.0104568999995536,None,,,,,sub-002,47.3,42.4,48.8,COM3,2024-01-23_15h00.05.096,2024_RDpaindiscrimination_maintask,2023.2.3,59.99671218045638,2024-01-23 15h00.31.940298 -0500,
0,0,0,0,,,,,2,0,2,0,,,,,2,0,2,0,775.3258440000027,,,,,,,,,,,,,,0,active,,,,,,,,,,,,,,,,,775.3113427000026,780.309835600001,780.3098481000015,780.3259627000007,787.8261545000023,787.8261545000023,790.8262033000028,790.8262033000028,791.2762125000008,791.260108100003,3.65,4.4,440,440,7.5,1.2,0.75,pic-absent,1,m,1.3799957999981416,None,,,,,sub-002,47.3,42.4,48.8,COM3,2024-01-23_15h00.05.096,2024_RDpaindiscrimination_maintask,2023.2.3,59.99671218045638,2024-01-23 15h00.31.940298 -0500,
0,0,0,0,,,,,2,0,2,0,,,,,3,0,3,0,791.2762125000008,,,,,,,,,,,,,,1,inactive,,,,,,,,,,,,,,,,,791.261656900002,796.2602516000006,796.2602645000006,796.2931196000027,803.7765247000025,803.7765247000025,806.7766004000005,806.7766004000005,807.2432542000024,807.2270915000008,3.52,4.53,427,453,7.5,1.2,0.75,pic-present,1,m,0.8136933999994653,None,,,,,sub-002,47.3,42.4,48.8,COM3,2024-01-23_15h00.05.096,2024_RDpaindiscrimination_maintask,2023.2.3,59.99671218045638,2024-01-23 15h00.31.940298 -0500,
0,0,0,0,,,,,3,0,3,0,0,0,0,0,,,,,810.6599832000029,,,,,,807.2286579000029,810.6444593000015,,,,,,,2,active,,825.660439700001,828.7151784000016,5.500000000000059,2.984,,,,810.6450796000026,815.6440763000028,815.6440890000013,815.6768247,,825.6604273000012,,,,,,,,,,,,,,,,,,,,,,,,,,,,,sub-002,47.3,42.4,48.8,COM3,2024-01-23_15h00.05.096,2024_RDpaindiscrimination_maintask,2023.2.3,59.99671218045638,2024-01-23 15h00.31.940298 -0500,
0,0,0,0,,,,,3,0,3,0,1,0,1,0,,,,,828.7438831,,,,,,,,,,,,,,3,inactive,,843.7275442999999,846.6305364,27.499999999999982,2.832,,,,828.7167412000017,833.7272964000003,833.7273085000015,833.7438938000014,,843.7275268000012,,,,,,,,,,,,,,,,,,,,,,,,,,,,,sub-002,47.3,42.4,48.8,COM3,2024-01-23_15h00.05.096,2024_RDpaindiscrimination_maintask,2023.2.3,59.99671218045638,2024-01-23 15h00.31.940298 -0500,
0,0,0,0,,,,,3,0,3,0,,,,,0,0,0,0,849.8775894000028,,,,,,,,,,,,,,0,inactive,,,,,,,,,,,,,,,846.6309060000021,849.8618631999998,849.8625151000015,854.8615546000001,854.8615673000022,854.8777227000028,862.3612237000016,862.3612237000016,865.3612598,865.3612598,865.8279557999995,865.8118257000024,3.54,4.51,429,451,7.5,1.2,0.75,pic-present,1,m,0.8127114999988407,None,,,,,sub-002,47.3,42.4,48.8,COM3,2024-01-23_15h00.05.096,2024_RDpaindiscrimination_maintask,2023.2.3,59.99671218045638,2024-01-23 15h00.31.940298 -0500,
0,0,0,0,,,,,3,0,3,0,,,,,1,0,1,0,865.8279557999995,,,,,,,,,,,,,,1,active,,,,,,,,,,,,,,,,,865.8135237999995,870.8119522000015,870.8119657999996,870.8447624,878.3282715000023,878.3282715000023,881.3283190000002,881.3283190000002,881.7950235000026,881.7789248000008,3.92,4.13,467,413,7.5,1.2,0.75,pic-absent,0,n,1.4028134000000136,None,,,,,sub-002,47.3,42.4,48.8,COM3,2024-01-23_15h00.05.096,2024_RDpaindiscrimination_maintask,2023.2.3,59.99671218045638,2024-01-23 15h00.31.940298 -0500,
0,0,0,0,,,,,3,0,3,0,,,,,2,0,2,0,881.7950235000026,,,,,,,,,,,,,,2,active,,,,,,,,,,,,,,,,,881.7804845000028,886.778992800002,886.7790065000008,886.7950966999997,894.2953125000022,894.2953125000022,897.2953766000028,897.2953766000028,897.7453661,897.7289646000027,3.75,4.3,450,430,7.5,1.2,0.75,pic-present,1,m,0.9144262000008894,None,,,,,sub-002,47.3,42.4,48.8,COM3,2024-01-23_15h00.05.096,2024_RDpaindiscrimination_maintask,2023.2.3,59.99671218045638,2024-01-23 15h00.31.940298 -0500,
0,0,0,0,,,,,3,0,3,0,,,,,3,0,3,0,897.7453661,,,,,,,,,,,,,,3,active,,,,,,,,,,,,,,,,,897.7305326999995,902.7293243000022,902.7293376000016,902.7455078000021,910.245681700002,910.245681700002,913.2457359,913.2457359,913.7123981000004,913.6795679999996,3.36,4.69,411,469,7.5,1.2,0.75,pic-absent,0,n,1.2841745000005176,None,,,,,sub-002,47.3,42.4,48.8,COM3,2024-01-23_15h00.05.096,2024_RDpaindiscrimination_maintask,2023.2.3,59.99671218045638,2024-01-23 15h00.31.940298 -0500,
1,0,1,0,0,0,0,0,,,,,,,,,,,,,995.2976763000006,,,,991.749894200002,993.3318838000014,993.3318978999996,995.2821087000011,995.2827567000022,1000.2816228000011,1000.2816340999998,1000.2977713,1010.381365600002,1010.2823363000025,0,inactive,47.3,1010.2823513000003,1013.8507009000023,46.999999999999915,3.488,,,,,,,,,,,,,,,,,,,,,,,,,,,,,,,,,,913.6809748000014,991.7491222999997,,,sub-002,47.3,42.4,48.8,COM3,2024-01-23_15h00.05.096,2024_RDpaindiscrimination_maintask,2023.2.3,59.99671218045638,2024-01-23 15h00.31.940298 -0500,
1,0,1,0,1,0,1,0,,,,,,,,,,,,,1013.881541900002,,,,,,,,1013.8525522000018,1018.8649172000005,1018.8649278000012,1018.8815237000017,,1028.8651815000012,1,inactive,47.3,1028.8651960000025,1031.2842034999994,48.99999999999993,2.349,,,,,,,,,,,,,,,,,,,,,,,,,,,,,,,,,,,,,,sub-002,47.3,42.4,48.8,COM3,2024-01-23_15h00.05.096,2024_RDpaindiscrimination_maintask,2023.2.3,59.99671218045638,2024-01-23 15h00.31.940298 -0500,
1,0,1,0,2,0,2,0,,,,,,,,,,,,,1031.2985235000015,,,,,,,,1031.2847901999994,1036.2823050000006,1036.2823180000014,1036.2986187999995,1046.3655431000007,1046.2831877000026,2,active,42.4,1046.2832025999996,1050.7845111999995,7.000000000000166,4.431,,,,,,,,,,,,,,,,,,,,,,,,,,,,,,,,,,,,,,sub-002,47.3,42.4,48.8,COM3,2024-01-23_15h00.05.096,2024_RDpaindiscrimination_maintask,2023.2.3,59.99671218045638,2024-01-23 15h00.31.940298 -0500,
1,0,1,0,3,0,3,0,,,,,,,,,,,,,1050.7989751999994,,,,,,,,1050.7850835999998,1055.7829566,1055.7829684000026,1055.7990769000025,1065.8659527000018,1065.783660600002,3,active,42.4,1065.7836755999997,1070.0674373000002,0.0,4.214,,,,,,,,,,,,,,,,,,,,,,,,,,,,,,,,,,,,,,sub-002,47.3,42.4,48.8,COM3,2024-01-23_15h00.05.096,2024_RDpaindiscrimination_maintask,2023.2.3,59.99671218045638,2024-01-23 15h00.31.940298 -0500,
1,0,1,0,4,0,4,0,,,,,,,,,,,,,1070.082761200003,,,,,,,,1070.0680149,1075.0667339000029,1075.0667458999997,1075.0828546000012,1085.1497823000027,1085.0673301999996,0,inactive,47.3,1085.0673454999996,1087.6874965000025,54.49999999999995,2.55,,,,,,,,,,,,,,,,,,,,,,,,,,,,,,,,,,,,,,sub-002,47.3,42.4,48.8,COM3,2024-01-23_15h00.05.096,2024_RDpaindiscrimination_maintask,2023.2.3,59.99671218045638,2024-01-23 15h00.31.940298 -0500,
1,0,1,0,5,0,5,0,,,,,,,,,,,,,1087.716506300003,,,,,,,,1087.6892183000018,1092.7000039000013,1092.7000152,1092.7166308000014,,1102.7002391999995,1,active,42.4,1102.7002541000002,1105.8525681000028,2.2898349882893854e-14,3.082,,,,,,,,,,,,,,,,,,,,,,,,,,,,,,,,,,,,,,sub-002,47.3,42.4,48.8,COM3,2024-01-23_15h00.05.096,2024_RDpaindiscrimination_maintask,2023.2.3,59.99671218045638,2024-01-23 15h00.31.940298 -0500,
1,0,1,0,6,0,6,0,,,,,,,,,,,,,1105.8669160000027,,,,,,,,1105.8531447000023,1110.8509107000027,1110.8509225000016,1110.8670235999998,1120.9339553000027,1120.8515800999994,2,inactive,47.3,1120.8515947000014,1123.1198320000003,59.999999999999964,2.198,,,,,,,,,,,,,,,,,,,,,,,,,,,,,,,,,,,,,,sub-002,47.3,42.4,48.8,COM3,2024-01-23_15h00.05.096,2024_RDpaindiscrimination_maintask,2023.2.3,59.99671218045638,2024-01-23 15h00.31.940298 -0500,
1,0,1,0,7,0,7,0,,,,,,,,,,,,,1123.1340074,,,,,,,,1123.1204075999995,1128.1179330000014,1128.1179445000016,1128.1341178000002,1138.2010231000022,1138.1186143000014,3,active,42.4,1138.1186296000014,1142.5719659999995,2.0000000000001297,4.383,,,,,,,,,,,,,,,,,,,,,,,,,,,,,,,,,,,,,,sub-002,47.3,42.4,48.8,COM3,2024-01-23_15h00.05.096,2024_RDpaindiscrimination_maintask,2023.2.3,59.99671218045638,2024-01-23 15h00.31.940298 -0500,
1,0,1,0,8,0,8,0,,,,,,,,,,,,,1142.6012373000012,,,,,,,,1142.5736770000003,1147.5846224000015,1147.5846335999995,1147.601243000001,,1157.5848699000016,0,active,42.4,1157.584885100001,1161.6709327000026,0.0,4.016,,,,,,,,,,,,,,,,,,,,,,,,,,,,,,,,,,,,,,sub-002,47.3,42.4,48.8,COM3,2024-01-23_15h00.05.096,2024_RDpaindiscrimination_maintask,2023.2.3,59.99671218045638,2024-01-23 15h00.31.940298 -0500,
1,0,1,0,9,0,9,0,,,,,,,,,,,,,1161.7015759999995,,,,,,,,1161.6726435000019,1166.6850680000025,1166.6850785999995,1166.7016934000021,,1176.6853152000003,1,inactive,47.3,1176.6853303000025,1178.8376234000025,60.99999999999996,2.082,,,,,,,,,,,,,,,,,,,,,,,,,,,,,,,,,,,,,,sub-002,47.3,42.4,48.8,COM3,2024-01-23_15h00.05.096,2024_RDpaindiscrimination_maintask,2023.2.3,59.99671218045638,2024-01-23 15h00.31.940298 -0500,
1,0,1,0,10,0,10,0,,,,,,,,,,,,,1178.8519758000002,,,,,,,,1178.8382022000005,1183.8359559000019,1183.8359676,1183.852071600002,1193.9190030999998,1193.8365841000013,2,active,42.4,1193.8365989000013,1196.1887153999996,0.0,2.282,,,,,,,,,,,,,,,,,,,,,,,,,,,,,,,,,,,,,,sub-002,47.3,42.4,48.8,COM3,2024-01-23_15h00.05.096,2024_RDpaindiscrimination_maintask,2023.2.3,59.99671218045638,2024-01-23 15h00.31.940298 -0500,
1,0,1,0,11,0,11,0,,,,,,,,,,,,,1196.202365600002,,,,,,,,1196.1892885000016,1201.1863034000016,1201.1863159000022,1201.2025012000013,1211.2693872000018,1211.1870484000028,3,inactive,47.3,1211.1870641999994,1213.155245500002,64.49999999999999,1.897,,,,,,,,,,,,,,,,,,,,,,,,,,,,,,,,,,,,,,sub-002,47.3,42.4,48.8,COM3,2024-01-23_15h00.05.096,2024_RDpaindiscrimination_maintask,2023.2.3,59.99671218045638,2024-01-23 15h00.31.940298 -0500,
1,0,1,0,12,0,12,0,,,,,,,,,,,,,1213.1694496000018,,,,,,,,1213.1558245000015,1218.1534219000023,1218.1534339999998,1218.1695655000003,1228.2364472000008,1228.1541371000021,0,active,42.4,1228.1541534000025,1232.2715175000012,2.0000000000001297,4.047,,,,,,,,,,,,,,,,,,,,,,,,,,,,,,,,,,,,,,sub-002,47.3,42.4,48.8,COM3,2024-01-23_15h00.05.096,2024_RDpaindiscrimination_maintask,2023.2.3,59.99671218045638,2024-01-23 15h00.31.940298 -0500,
1,0,1,0,13,0,13,0,,,,,,,,,,,,,1232.286564500002,,,,,,,,1232.2721020999998,1237.270280300003,1237.2702919000003,1237.286662800001,1247.3535857999996,1247.2711765000022,1,active,42.4,1247.2711914000029,1250.6065491000008,0.0,3.265,,,,,,,,,,,,,,,,,,,,,,,,,,,,,,,,,,,,,,sub-002,47.3,42.4,48.8,COM3,2024-01-23_15h00.05.096,2024_RDpaindiscrimination_maintask,2023.2.3,59.99671218045638,2024-01-23 15h00.31.940298 -0500,
1,0,1,0,14,0,14,0,,,,,,,,,,,,,1250.6370956000028,,,,,,,,1250.608270300003,1255.6205069000025,1255.6205178000018,1255.6371104999998,,1265.6207332000013,2,inactive,47.3,1265.6207482999998,1268.8559015000028,49.50000000000011,3.165,,,,,,,,,,,,,,,,,,,,,,,,,,,,,,,,,,,,,,sub-002,47.3,42.4,48.8,COM3,2024-01-23_15h00.05.096,2024_RDpaindiscrimination_maintask,2023.2.3,59.99671218045638,2024-01-23 15h00.31.940298 -0500,
1,0,1,0,15,0,15,0,,,,,,,,,,,,,1268.8708774000006,,,,,,,,1268.8569683000023,1273.8547075000024,1273.8547195000028,1273.870870900002,1283.9377781000003,1283.8554170999996,3,inactive,47.3,1283.8554318000024,1288.0231837000028,43.99999999999999,4.097,,,,,,,,,,,,,,,,,,,,,,,,,,,,,,,,,,,,,,sub-002,47.3,42.4,48.8,COM3,2024-01-23_15h00.05.096,2024_RDpaindiscrimination_maintask,2023.2.3,59.99671218045638,2024-01-23 15h00.31.940298 -0500,
1,0,1,0,,,,,0,0,0,0,0,0,0,0,,,,,1303.821565000002,,,,,,1301.639840300002,1303.8058125000025,,,,,,,0,inactive,,1318.8062446000004,1320.991726100001,58.49999999999997,2.115,1288.0235551000005,1288.0378473000019,1301.6391709000018,1303.8064118000002,1308.8055363000021,1308.8055488999998,1308.8217781000021,1318.8885768,1318.8062303000006,,,,,,,,,,,,,,,,,,,,,,,,,,,,,sub-002,47.3,42.4,48.8,COM3,2024-01-23_15h00.05.096,2024_RDpaindiscrimination_maintask,2023.2.3,59.99671218045638,2024-01-23 15h00.31.940298 -0500,
1,0,1,0,,,,,0,0,0,0,1,0,1,0,,,,,1321.005286300002,,,,,,,,,,,,,,1,active,,1335.9912392000006,1338.8088989999997,29.99999999999997,2.748,,,,1320.9922589000016,1325.9892292000004,1325.9892422000012,1326.005430000001,1336.0723322000013,1335.9912263000006,,,,,,,,,,,,,,,,,,,,,,,,,,,,,sub-002,47.3,42.4,48.8,COM3,2024-01-23_15h00.05.096,2024_RDpaindiscrimination_maintask,2023.2.3,59.99671218045638,2024-01-23 15h00.31.940298 -0500,
1,0,1,0,,,,,0,0,0,0,,,,,0,0,0,0,1342.1724343999995,,,,,,,,,,,,,,2,active,,,,,,,,,,,,,,,1338.8092701999994,1342.1567386000024,1342.1573868000014,1347.1564617000004,1347.156474800002,1347.1725729999998,1354.6560753000012,1354.6560753000012,1357.6561720999998,1357.6561720999998,1358.1228534000002,1358.1066529000018,3.76,4.29,451,429,7.5,1.2,0.75,pic-present,1,m,0.8371389999992971,None,,,,,sub-002,47.3,42.4,48.8,COM3,2024-01-23_15h00.05.096,2024_RDpaindiscrimination_maintask,2023.2.3,59.99671218045638,2024-01-23 15h00.31.940298 -0500,
1,0,1,0,,,,,0,0,0,0,,,,,1,0,1,0,1358.1228534000002,,,,,,,,,,,,,,3,inactive,,,,,,,,,,,,,,,,,1358.1083767000018,1363.1067463,1363.1067595000022,1363.1229649000015,1370.6231232999999,1370.6231232999999,1373.6232068999998,1373.6232068999998,1374.0732179000006,1374.0571316000023,3.36,4.69,411,469,7.5,1.2,0.75,pic-absent,0,n,0.673646799998096,None,,,,,sub-002,47.3,42.4,48.8,COM3,2024-01-23_15h00.05.096,2024_RDpaindiscrimination_maintask,2023.2.3,59.99671218045638,2024-01-23 15h00.31.940298 -0500,
1,0,1,0,,,,,0,0,0,0,,,,,2,0,2,0,1374.0732179000006,,,,,,,,,,,,,,0,active,,,,,,,,,,,,,,,,,1374.0586814000017,1379.0571901000003,1379.057203100001,1379.0733725999999,1386.5734926000005,1386.5734926000005,1389.5735817000023,1389.5735817000023,1390.0235783999997,1390.0074521999995,4.24,3.81,499,381,7.5,1.2,0.75,pic-present,1,m,1.0911491000006208,None,,,,,sub-002,47.3,42.4,48.8,COM3,2024-01-23_15h00.05.096,2024_RDpaindiscrimination_maintask,2023.2.3,59.99671218045638,2024-01-23 15h00.31.940298 -0500,
1,0,1,0,,,,,0,0,0,0,,,,,3,0,3,0,1390.0235783999997,,,,,,,,,,,,,,1,inactive,,,,,,,,,,,,,,,,,1390.009131900002,1395.0075338999995,1395.007547000001,1395.023710100002,1402.5238664000026,1402.5238664000026,1405.5239387000001,1405.5239387000001,1405.9739671999996,1405.9577867000007,3.8,4.25,455,425,7.5,1.2,0.75,pic-present,1,m,0.9008272000028228,None,,,,,sub-002,47.3,42.4,48.8,COM3,2024-01-23_15h00.05.096,2024_RDpaindiscrimination_maintask,2023.2.3,59.99671218045638,2024-01-23 15h00.31.940298 -0500,
1,0,1,0,,,,,1,0,1,0,0,0,0,0,,,,,1410.0073771999996,,,,,,1405.9593779999996,1409.9916445000017,,,,,,,2,active,,1424.9920905,1427.961055900003,32.5000000000001,2.899,,,,1409.9922603000014,1414.991363000001,1414.9913756999995,1415.0074946000022,1425.0744151,1424.9920789000025,,,,,,,,,,,,,,,,,,,,,,,,,,,,,sub-002,47.3,42.4,48.8,COM3,2024-01-23_15h00.05.096,2024_RDpaindiscrimination_maintask,2023.2.3,59.99671218045638,2024-01-23 15h00.31.940298 -0500,
1,0,1,0,,,,,1,0,1,0,1,0,1,0,,,,,1427.9912537000018,,,,,,,,,,,,,,3,inactive,,1442.9749048000012,1445.4106678000026,34.99999999999994,2.365,,,,1427.9626137000014,1432.9746675000024,1432.9746795000028,1432.9912490000024,,1442.9748918000005,,,,,,,,,,,,,,,,,,,,,,,,,,,,,sub-002,47.3,42.4,48.8,COM3,2024-01-23_15h00.05.096,2024_RDpaindiscrimination_maintask,2023.2.3,59.99671218045638,2024-01-23 15h00.31.940298 -0500,
1,0,1,0,,,,,1,0,1,0,,,,,0,0,0,0,1449.6583258000028,,,,,,,,,,,,,,0,active,,,,,,,,,,,,,,,1445.4114518999995,1449.6425345000025,1449.6431943999996,1454.6423023999996,1454.6423152999996,1454.6584255000016,1462.1419112000003,1462.1419112000003,1465.1420161000024,1465.1420161000024,1465.6086957000007,1465.592518100002,3.98,4.07,473,407,7.5,1.2,0.75,pic-absent,0,n,1.0386364000005415,None,,,,,sub-002,47.3,42.4,48.8,COM3,2024-01-23_15h00.05.096,2024_RDpaindiscrimination_maintask,2023.2.3,59.99671218045638,2024-01-23 15h00.31.940298 -0500,
1,0,1,0,,,,,1,0,1,0,,,,,1,0,1,0,1465.6086957000007,,,,,,,,,,,,,,1,inactive,,,,,,,,,,,,,,,,,1465.5942379000007,1470.5926959999997,1470.592709200002,1470.6088073000028,1478.1089726999999,1478.1089726999999,1481.1090401000001,1481.1090401000001,1481.559072,1481.5428821000023,3.44,4.61,419,461,7.5,1.2,0.75,pic-present,1,m,0.5960261999971408,None,,,,,sub-002,47.3,42.4,48.8,COM3,2024-01-23_15h00.05.096,2024_RDpaindiscrimination_maintask,2023.2.3,59.99671218045638,2024-01-23 15h00.31.940298 -0500,
1,0,1,0,,,,,1,0,1,0,,,,,2,0,2,0,1481.559072,,,,,,,,,,,,,,2,active,,,,,,,,,,,,,,,,,1481.544429200003,1486.5429917000001,1486.5430067000016,1486.5591667000008,1494.059342200002,1494.059342200002,1497.0594305000013,1497.0594305000013,1497.509440400001,1497.4932240000016,3.87,4.18,462,418,7.5,1.2,0.75,pic-absent,0,n,1.013220300003013,None,,,,,sub-002,47.3,42.4,48.8,COM3,2024-01-23_15h00.05.096,2024_RDpaindiscrimination_maintask,2023.2.3,59.99671218045638,2024-01-23 15h00.31.940298 -0500,
1,0,1,0,,,,,1,0,1,0,,,,,3,0,3,0,1497.509440400001,,,,,,,,,,,,,,3,active,,,,,,,,,,,,,,,,,1497.4947616999998,1502.4933741999994,1502.4933866000029,1502.5095603000009,1510.009715600001,1510.009715600001,1513.0098103000018,1513.0098103000018,1513.4598133,1513.4436883000017,3.44,4.61,419,461,7.5,1.2,0.75,pic-present,1,m,0.6825626999998349,None,,,,,sub-002,47.3,42.4,48.8,COM3,2024-01-23_15h00.05.096,2024_RDpaindiscrimination_maintask,2023.2.3,59.99671218045638,2024-01-23 15h00.31.940298 -0500,
1,0,1,0,,,,,2,0,2,0,0,0,0,0,,,,,1517.1598911,,,,,,1513.4452683000018,1517.1441464000018,,,,,,,0,inactive,,1532.1445746999998,1536.8293680000024,31.50000000000004,4.614,,,,1517.1447566000024,1522.1438248000013,1522.1438374999998,1522.1600174000014,1532.2269261000001,1532.1445620000013,,,,,,,,,,,,,,,,,,,,,,,,,,,,,sub-002,47.3,42.4,48.8,COM3,2024-01-23_15h00.05.096,2024_RDpaindiscrimination_maintask,2023.2.3,59.99671218045638,2024-01-23 15h00.31.940298 -0500,
1,0,1,0,,,,,2,0,2,0,1,0,1,0,,,,,1536.860426700001,,,,,,,,,,,,,,1,active,,1551.844101900002,1554.596802,48.50000000000008,2.682,,,,1536.830952100001,1541.8438597000022,1541.843872100002,1541.8604818000022,,1551.8440881999995,,,,,,,,,,,,,,,,,,,,,,,,,,,,,sub-002,47.3,42.4,48.8,COM3,2024-01-23_15h00.05.096,2024_RDpaindiscrimination_maintask,2023.2.3,59.99671218045638,2024-01-23 15h00.31.940298 -0500,
1,0,1,0,,,,,2,0,2,0,,,,,0,0,0,0,1559.4108871000026,,,,,,,,,,,,,,2,inactive,,,,,,,,,,,,,,,1554.597740600002,1559.3953686999994,1559.396024900001,1564.3949083000007,1564.3949216,1564.4109886000006,1571.8944759000005,1571.8944759000005,1574.894569,1574.894569,1575.3612487999999,1575.3450739,3.66,4.39,441,438,7.5,1.2,0.75,pic-absent,0,n,1.0706702999996196,None,,,,,sub-002,47.3,42.4,48.8,COM3,2024-01-23_15h00.05.096,2024_RDpaindiscrimination_maintask,2023.2.3,59.99671218045638,2024-01-23 15h00.31.940298 -0500,
1,0,1,0,,,,,2,0,2,0,,,,,1,0,1,0,1575.3612487999999,,,,,,,,,,,,,,3,active,,,,,,,,,,,,,,,,,1575.346783500001,1580.3452093000014,1580.345222400003,1580.3614879000015,1587.8615382999997,1587.8615382999997,1590.8616051000026,1590.8616051000026,1591.3115964000026,1591.295463100003,4.06,3.99,480,399,7.5,1.2,0.75,pic-present,1,m,0.6272965999996813,None,,,,,sub-002,47.3,42.4,48.8,COM3,2024-01-23_15h00.05.096,2024_RDpaindiscrimination_maintask,2023.2.3,59.99671218045638,2024-01-23 15h00.31.940298 -0500,
1,0,1,0,,,,,2,0,2,0,,,,,2,0,2,0,1591.3115964000026,,,,,,,,,,,,,,0,inactive,,,,,,,,,,,,,,,,,1591.297010000002,1596.2955819000017,1596.2955951000004,1596.3117509000003,1603.811911300003,1603.811911300003,1606.8119822000008,1606.8119822000008,1607.2619913000017,1607.2458412000015,4.09,3.96,484,396,7.5,1.2,0.75,pic-present,1,m,1.1409284999972442,None,,,,,sub-002,47.3,42.4,48.8,COM3,2024-01-23_15h00.05.096,2024_RDpaindiscrimination_maintask,2023.2.3,59.99671218045638,2024-01-23 15h00.31.940298 -0500,
1,0,1,0,,,,,2,0,2,0,,,,,3,0,3,0,1607.2619913000017,,,,,,,,,,,,,,1,active,,,,,,,,,,,,,,,,,1607.2473826000023,1612.2459786,1612.2459914000028,1612.2621113999994,1619.7622790000023,1619.7622790000023,1622.7623647,1622.7623647,1623.2123408000007,1623.1962074000003,3.72,4.33,447,433,7.5,1.2,0.75,pic-absent,0,n,0.9460530999967887,None,,,,,sub-002,47.3,42.4,48.8,COM3,2024-01-23_15h00.05.096,2024_RDpaindiscrimination_maintask,2023.2.3,59.99671218045638,2024-01-23 15h00.31.940298 -0500,
1,0,1,0,,,,,3,0,3,0,0,0,0,0,,,,,1627.279125500001,,,,,,1623.1977802000001,1627.2636545000023,,,,,,,2,active,,1642.2638066,1644.0475664000005,50.000000000000036,1.713,,,,1627.2642928000023,1632.2630471000011,1632.2630596000017,1632.2792539000002,1642.3461683000023,1642.2637945000024,,,,,,,,,,,,,,,,,,,,,,,,,,,,,sub-002,47.3,42.4,48.8,COM3,2024-01-23_15h00.05.096,2024_RDpaindiscrimination_maintask,2023.2.3,59.99671218045638,2024-01-23 15h00.31.940298 -0500,
1,0,1,0,,,,,3,0,3,0,1,0,1,0,,,,,1644.0628848000015,,,,,,,,,,,,,,3,inactive,,1659.0632688000005,1664.4167396000012,11.000000000000071,5.28,,,,1644.0480984000023,1649.0468475000016,1649.046861400002,1649.0796821000004,,1659.0632560000013,,,,,,,,,,,,,,,,,,,,,,,,,,,,,sub-002,47.3,42.4,48.8,COM3,2024-01-23_15h00.05.096,2024_RDpaindiscrimination_maintask,2023.2.3,59.99671218045638,2024-01-23 15h00.31.940298 -0500,
1,0,1,0,,,,,3,0,3,0,,,,,0,0,0,0,1669.7134613000017,,,,,,,,,,,,,,0,inactive,,,,,,,,,,,,,,,1664.4176671000023,1669.6978772000002,1669.6985411999995,1674.697417700001,1674.6974308999997,1674.7135703000022,1682.1970758999996,1682.1970758999996,1685.1971642999997,1685.1971642999997,1685.6638327,1685.6476696000027,3.29,4.76,404,476,7.5,1.2,0.75,pic-present,1,m,0.5431400000015856,None,,,,,sub-002,47.3,42.4,48.8,COM3,2024-01-23_15h00.05.096,2024_RDpaindiscrimination_maintask,2023.2.3,59.99671218045638,2024-01-23 15h00.31.940298 -0500,
1,0,1,0,,,,,3,0,3,0,,,,,1,0,1,0,1685.6638327,,,,,,,,,,,,,,1,active,,,,,,,,,,,,,,,,,1685.6493673000004,1690.6478081000023,1690.6478210999994,1690.6639618000008,1698.1641266000006,1698.1641266000006,1701.1641826000014,1701.1641826000014,1701.6141951000027,1701.5980311000021,3.43,4.62,418,462,7.5,1.2,0.75,pic-absent,0,n,1.040227599998616,None,,,,,sub-002,47.3,42.4,48.8,COM3,2024-01-23_15h00.05.096,2024_RDpaindiscrimination_maintask,2023.2.3,59.99671218045638,2024-01-23 15h00.31.940298 -0500,
1,0,1,0,,,,,3,0,3,0,,,,,2,0,2,0,1701.6141951000027,,,,,,,,,,,,,,2,inactive,,,,,,,,,,,,,,,,,1701.5995829000021,1706.5981549999997,1706.5981678000026,1706.614314100003,1714.1144712999994,1714.1144712999994,1717.1145577999996,1717.1145577999996,1717.5645717000007,1717.5482080000002,4.06,3.99,480,399,7.5,1.2,0.75,pic-absent,0,n,1.081409700000222,None,,,,,sub-002,47.3,42.4,48.8,COM3,2024-01-23_15h00.05.096,2024_RDpaindiscrimination_maintask,2023.2.3,59.99671218045638,2024-01-23 15h00.31.940298 -0500,
1,0,1,0,,,,,3,0,3,0,,,,,3,0,3,0,1717.5645717000007,,,,,,,,,,,,,,3,inactive,,,,,,,,,,,,,,,,,1717.5498498000015,1722.5485045000023,1722.5485178000017,1722.5646836000014,1730.0648629000025,1730.0648629000025,1733.0649317000025,1733.0649317000025,1733.5149462000008,1733.4987918000006,3.37,4.68,412,468,7.5,1.2,0.75,pic-absent,0,n,1.1717191000025196,None,,,,,sub-002,47.3,42.4,48.8,COM3,2024-01-23_15h00.05.096,2024_RDpaindiscrimination_maintask,2023.2.3,59.99671218045638,2024-01-23 15h00.31.940298 -0500,
,,,,,,,,,,,,,,,,,,,,,,,,,,,,,,,,,,,,,,,,,,,,,,,,,,,,,,,,,,,,,,,,,,,,,,,,,,1733.5002034000026,1736.5328072000011,1736.5328442000027,1746.5324153000001,,,,,,,,,,,
