trials.thisRepN,trials.thisTrialN,trials.thisN,trials.thisIndex,loop_test.thisRepN,loop_test.thisTrialN,loop_test.thisN,loop_test.thisIndex,loop_eval_discri.thisRepN,loop_eval_discri.thisTrialN,loop_eval_discri.thisN,loop_eval_discri.thisIndex,loop_eval.thisRepN,loop_eval.thisTrialN,loop_eval.thisN,loop_eval.thisIndex,loop_discri.thisRepN,loop_discri.thisTrialN,loop_discri.thisN,loop_discri.thisIndex,thisRow.t,notes,Set_up.started,Set_up.stopped,electrode_check.started,electrode_check.stopped,instructions_eval.started,instructions_eval.stopped,pause_5_test.started,pause_5_test.stopped,Phase_Test.started,thermode_locali.started,thermode_locali.stopped,Phase_Test.stopped,loca_thermode,condition,temp_trial_sent,eval_douleur.started,eval_douleur.stopped,ratingScale.response,ratingScale.rt,Fin_test.started,text.started,Fin_test.stopped,pause_5_EVA.started,pause_5_EVA.stopped,tâche_EVA.started,thermode_locali_EVA.started,thermode_locali_EVA.stopped,tâche_EVA.stopped,instructions_discrim.started,instructions_discrim.stopped,pause_5_pic.started,pause_5_pic.stopped,tâche_PIC.started,thermode_locali_pic.started,percu_or.started,responser.started,thermode_locali_pic.stopped,percu_or.stopped,responser.stopped,tâche_PIC.stopped,dur_plateau1,dur_plateau2,dur_plateau1_sent,dur_plateau2_sent,start_plateau_2_resp,dur_pic,dur_rise,pic_presence,pic_response,discrimin_resp.keys,discrimin_resp.rt,discrimin_resp.duration,break_entre_bloc.started,break_entre_bloc.stopped,merci.started,merci.stopped,participant,temp_flat,temp_active,temp_pic_set,com_thermode,date,expName,psychopyVersion,frameRate,expStart,
0,0,0,0,0,0,0,0,,,,,,,,,,,,,8.344486500136554,,0.01107420027256012,5.194760499987751,5.195101600140333,5.961405400186777,5.961413600016385,8.32809460023418,8.328392900060862,13.32809180021286,13.328098400030285,13.34457470010966,25.361276800278574,25.32846700027585,0,active,42.1,25.32867499999702,29.146444800309837,12.500000000000135,3.795,,,,,,,,,,,,,,,,,,,,,,,,,,,,,,,,,,,,,,sub-041,44.8,42.1,45.75,COM3,2024-06-10_13h35.03.061,2024_RDpaindiscrimination_maintask,2023.2.3,60.00218412407347,2024-06-10 13h35.26.886857 -0400,
0,0,0,0,1,0,1,0,,,,,,,,,,,,,29.16139810020104,,,,,,,,29.147345799952745,34.144947700202465,34.144954700022936,34.16146710002795,46.17823929991573,46.14535199990496,1,active,42.1,46.14549540029839,48.197622400242835,35.00000000000006,2.033,,,,,,,,,,,,,,,,,,,,,,,,,,,,,,,,,,,,,,sub-041,44.8,42.1,45.75,COM3,2024-06-10_13h35.03.061,2024_RDpaindiscrimination_maintask,2023.2.3,60.00218412407347,2024-06-10 13h35.26.886857 -0400,
0,0,0,0,2,0,2,0,,,,,,,,,,,,,48.21154260030016,,,,,,,,48.198418700136244,53.19511059997603,53.19511740002781,53.21164430025965,65.22847840003669,65.19554340001196,2,inactive,44.8,65.19569050008431,68.68034980027005,69.99999999999983,3.466,,,,,,,,,,,,,,,,,,,,,,,,,,,,,,,,,,,,,,sub-041,44.8,42.1,45.75,COM3,2024-06-10_13h35.03.061,2024_RDpaindiscrimination_maintask,2023.2.3,60.00218412407347,2024-06-10 13h35.26.886857 -0400,
0,0,0,0,3,0,3,0,,,,,,,,,,,,,68.69509620033205,,,,,,,,68.68111960031092,73.67868980020285,73.6786962999031,73.69518750021234,85.71199289988726,85.67912810016423,3,active,42.1,85.67927430011332,89.94687080010772,20.500000000000178,4.249,,,,,,,,,,,,,,,,,,,,,,,,,,,,,,,,,,,,,,sub-041,44.8,42.1,45.75,COM3,2024-06-10_13h35.03.061,2024_RDpaindiscrimination_maintask,2023.2.3,60.00218412407347,2024-06-10 13h35.26.886857 -0400,
0,0,0,0,4,0,4,0,,,,,,,,,,,,,89.96198090026155,,,,,,,,89.94761330028996,94.94556380016729,94.94557070033625,94.96207050001249,106.97889390029013,106.94600039999932,0,active,42.1,106.9461465999484,110.69775230018422,26.500000000000156,3.732,,,,,,,,,,,,,,,,,,,,,,,,,,,,,,,,,,,,,,sub-041,44.8,42.1,45.75,COM3,2024-06-10_13h35.03.061,2024_RDpaindiscrimination_maintask,2023.2.3,60.00218412407347,2024-06-10 13h35.26.886857 -0400,
0,0,0,0,5,0,5,0,,,,,,,,,,,,,110.71219650004059,,,,,,,,110.69854230014607,115.6958018001169,115.69580799993128,115.71224860008806,127.72898219991475,127.69610000029206,1,inactive,44.8,127.69624989992008,129.76535400003195,69.99999999999993,2.05,,,,,,,,,,,,,,,,,,,,,,,,,,,,,,,,,,,,,,sub-041,44.8,42.1,45.75,COM3,2024-06-10_13h35.03.061,2024_RDpaindiscrimination_maintask,2023.2.3,60.00218412407347,2024-06-10 13h35.26.886857 -0400,
0,0,0,0,6,0,6,0,,,,,,,,,,,,,129.7790737003088,,,,,,,,129.76617830013856,134.76260260026902,134.76260920008644,134.77905610017478,146.7959334999323,146.76305530034006,2,active,42.1,146.7631974001415,150.64812180027366,19.500000000000078,3.866,,,,,,,,,,,,,,,,,,,,,,,,,,,,,,,,,,,,,,sub-041,44.8,42.1,45.75,COM3,2024-06-10_13h35.03.061,2024_RDpaindiscrimination_maintask,2023.2.3,60.00218412407347,2024-06-10 13h35.26.886857 -0400,
0,0,0,0,7,0,7,0,,,,,,,,,,,,,150.66264510015026,,,,,,,,150.6489082002081,155.64618400018662,155.64619060000405,155.662651500199,167.67948620021343,167.64662740007043,3,active,42.1,167.6467721001245,169.19881690014154,23.999999999999986,1.533,,,,,,,,,,,,,,,,,,,,,,,,,,,,,,,,,,,,,,sub-041,44.8,42.1,45.75,COM3,2024-06-10_13h35.03.061,2024_RDpaindiscrimination_maintask,2023.2.3,60.00218412407347,2024-06-10 13h35.26.886857 -0400,
0,0,0,0,8,0,8,0,,,,,,,,,,,,,169.2127680000849,,,,,,,,169.19956730026752,174.19637900032103,174.19638550002128,174.21288420027122,186.2296712999232,186.19680970022455,0,inactive,44.8,186.19695689994842,189.76477809995413,64.49999999999986,3.548,,,,,,,,,,,,,,,,,,,,,,,,,,,,,,,,,,,,,,sub-041,44.8,42.1,45.75,COM3,2024-06-10_13h35.03.061,2024_RDpaindiscrimination_maintask,2023.2.3,60.00218412407347,2024-06-10 13h35.26.886857 -0400,
0,0,0,0,9,0,9,0,,,,,,,,,,,,,189.7797026000917,,,,,,,,189.76560290018097,194.76325990026817,194.76326740020886,194.77971030026674,206.79654309991747,206.76367220003158,1,inactive,44.8,206.76382360002026,210.93134320015088,75.99999999999983,4.149,,,,,,,,,,,,,,,,,,,,,,,,,,,,,,,,,,,,,,sub-041,44.8,42.1,45.75,COM3,2024-06-10_13h35.03.061,2024_RDpaindiscrimination_maintask,2023.2.3,60.00218412407347,2024-06-10 13h35.26.886857 -0400,
0,0,0,0,10,0,10,0,,,,,,,,,,,,,210.94662930024788,,,,,,,,210.93210580013692,215.93013430014253,215.93014080030844,215.94666630029678,227.96343869995326,227.93055739998817,2,active,42.1,227.93069919990376,229.53167350031435,12.000000000000002,1.582,,,,,,,,,,,,,,,,,,,,,,,,,,,,,,,,,,,,,,sub-041,44.8,42.1,45.75,COM3,2024-06-10_13h35.03.061,2024_RDpaindiscrimination_maintask,2023.2.3,60.00218412407347,2024-06-10 13h35.26.886857 -0400,
0,0,0,0,11,0,11,0,,,,,,,,,,,,,229.54667429998517,,,,,,,,229.53192869992927,234.53031249996275,234.5303194001317,234.54670100007206,246.56361870002002,246.53075079992414,3,inactive,44.8,246.5309007000178,248.7488589999266,57.999999999999936,2.199,,,,,,,,,,,,,,,,,,,,,,,,,,,,,,,,,,,,,,sub-041,44.8,42.1,45.75,COM3,2024-06-10_13h35.03.061,2024_RDpaindiscrimination_maintask,2023.2.3,60.00218412407347,2024-06-10 13h35.26.886857 -0400,
0,0,0,0,12,0,12,0,,,,,,,,,,,,,248.7636267002672,,,,,,,,248.7496736999601,253.7471660003066,253.7471729000099,253.76368519989774,265.8304528002627,265.7476101000793,0,inactive,44.8,265.7477520001121,269.3813332999125,38.00000000000015,3.565,,,,,,,,,,,,,,,,,,,,,,,,,,,,,,,,,,,,,,sub-041,44.8,42.1,45.75,COM3,2024-06-10_13h35.03.061,2024_RDpaindiscrimination_maintask,2023.2.3,60.00218412407347,2024-06-10 13h35.26.886857 -0400,
0,0,0,0,13,0,13,0,,,,,,,,,,,,,269.3970886999741,,,,,,,,269.38159740017727,274.38064779993147,274.38065459998325,274.39721210021526,286.41404059994966,286.3811693000607,1,active,42.1,286.38131280010566,288.18224949995056,14.500000000000004,1.782,,,,,,,,,,,,,,,,,,,,,,,,,,,,,,,,,,,,,,sub-041,44.8,42.1,45.75,COM3,2024-06-10_13h35.03.061,2024_RDpaindiscrimination_maintask,2023.2.3,60.00218412407347,2024-06-10 13h35.26.886857 -0400,
0,0,0,0,14,0,14,0,,,,,,,,,,,,,288.19741690019146,,,,,,,,288.18305370025337,293.180939800106,293.1809463999234,293.1973884003237,305.2142397002317,305.1813296000473,2,inactive,44.8,305.1814764998853,308.1831314000301,63.999999999999844,2.983,,,,,,,,,,,,,,,,,,,,,,,,,,,,,,,,,,,,,,sub-041,44.8,42.1,45.75,COM3,2024-06-10_13h35.03.061,2024_RDpaindiscrimination_maintask,2023.2.3,60.00218412407347,2024-06-10 13h35.26.886857 -0400,
0,0,0,0,15,0,15,0,,,,,,,,,,,,,308.19757209997624,,,,,,,,308.1839560000226,313.18118630023673,313.181192799937,313.1976189999841,325.2144043003209,325.18153920024633,3,inactive,44.8,325.18168159993365,328.0327830002643,62.49999999999985,2.832,,,,,,,,,,,,,,,,,,,,,,,,,,,,,,,,,,,,,,sub-041,44.8,42.1,45.75,COM3,2024-06-10_13h35.03.061,2024_RDpaindiscrimination_maintask,2023.2.3,60.00218412407347,2024-06-10 13h35.26.886857 -0400,
0,0,0,0,,,,,0,0,0,0,0,0,0,0,,,,,348.2646460002288,,,,,,345.29853100003675,348.2482448001392,,,,,,,0,active,44.8,365.2486378001049,367.3841245002113,58.50000000000004,2.117,328.0333910002373,328.0477706003003,345.298205900006,348.24854100029916,353.24820000026375,353.24820769997314,353.2646997002885,365.2815323001705,365.24862840026617,,,,,,,,,,,,,,,,,,,,,,,,,,,,,sub-041,44.8,42.1,45.75,COM3,2024-06-10_13h35.03.061,2024_RDpaindiscrimination_maintask,2023.2.3,60.00218412407347,2024-06-10 13h35.26.886857 -0400,
0,0,0,0,,,,,0,0,0,0,1,0,1,0,,,,,367.3982462002896,,,,,,,,,,,,,,1,inactive,44.8,384.38218729989603,387.84990430017933,69.49999999999986,3.449,,,,367.3848987002857,372.3817272000015,372.3817342999391,372.39819450024515,384.41506389994174,384.3821797003038,,,,,,,,,,,,,,,,,,,,,,,,,,,,,sub-041,44.8,42.1,45.75,COM3,2024-06-10_13h35.03.061,2024_RDpaindiscrimination_maintask,2023.2.3,60.00218412407347,2024-06-10 13h35.26.886857 -0400,
0,0,0,0,,,,,0,0,0,0,,,,,0,0,0,0,397.69841400021687,,,,,,,,,,,,,,2,inactive,,,,,,,,,,,,,,,387.85046639991924,397.68216879991814,397.68247470026836,402.68196920026094,402.6819768003188,402.69847120018676,410.6818784000352,410.6818784000352,413.6485827001743,413.68201210023835,413.68201210023835,413.6654298999347,4.17,4.63,417,463,8,1.2,0.75,pic-absent,0,m,0.767512199934572,None,,,,,sub-041,44.8,42.1,45.75,COM3,2024-06-10_13h35.03.061,2024_RDpaindiscrimination_maintask,2023.2.3,60.00218412407347,2024-06-10 13h35.26.886857 -0400,
0,0,0,0,,,,,0,0,0,0,,,,,1,0,1,0,413.68201210023835,,,,,,,,,,,,,,3,inactive,,,,,,,,,,,,,,,,,413.66601280029863,418.66560050006956,418.6656085001305,418.6820439998992,426.6654333001934,426.6654333001934,429.6321205003187,429.6654592999257,429.6654592999257,429.64898210018873,3.33,5.47,333,547,8,1.2,0.75,pic-present,1,n,0.7805893002077937,None,,,,,sub-041,44.8,42.1,45.75,COM3,2024-06-10_13h35.03.061,2024_RDpaindiscrimination_maintask,2023.2.3,60.00218412407347,2024-06-10 13h35.26.886857 -0400,
0,0,0,0,,,,,0,0,0,0,,,,,2,0,2,0,429.6654592999257,,,,,,,,,,,,,,0,active,,,,,,,,,,,,,,,,,429.6494583999738,434.64906729990616,434.64907520031556,434.66550770029426,442.6490008002147,442.6490008002147,445.615587499924,445.6489967000671,445.6489967000671,445.6324674002826,4.03,4.77,403,476,8,1.2,0.75,pic-absent,0,m,0.8845114000141621,None,,,,,sub-041,44.8,42.1,45.75,COM3,2024-06-10_13h35.03.061,2024_RDpaindiscrimination_maintask,2023.2.3,60.00218412407347,2024-06-10 13h35.26.886857 -0400,
0,0,0,0,,,,,0,0,0,0,,,,,3,0,3,0,445.6489967000671,,,,,,,,,,,,,,1,active,,,,,,,,,,,,,,,,,445.6329661998898,450.63254739996046,450.6325554000214,450.6490119001828,458.6324529000558,458.6324529000558,461.5990972002037,461.6324995001778,461.6324995001778,461.61603040015325,4.28,4.52,428,451,8,1.2,0.75,pic-present,1,n,0.8009774996899068,None,,,,,sub-041,44.8,42.1,45.75,COM3,2024-06-10_13h35.03.061,2024_RDpaindiscrimination_maintask,2023.2.3,60.00218412407347,2024-06-10 13h35.26.886857 -0400,
0,0,0,0,,,,,1,0,1,0,0,0,0,0,,,,,465.8325371001847,,,,,,461.6165006002411,465.8161329999566,,,,,,,2,inactive,44.8,482.81640990031883,485.55132020032033,61.49999999999985,2.716,,,,465.81645380007103,470.81609110021964,470.8160981000401,470.83254359988496,482.8493885002099,482.81640180014074,,,,,,,,,,,,,,,,,,,,,,,,,,,,,sub-041,44.8,42.1,45.75,COM3,2024-06-10_13h35.03.061,2024_RDpaindiscrimination_maintask,2023.2.3,60.00218412407347,2024-06-10 13h35.26.886857 -0400,
0,0,0,0,,,,,1,0,1,0,1,0,1,0,,,,,485.56609390024096,,,,,,,,,,,,,,3,active,44.8,502.5499653001316,505.7856805003248,50.9999999999999,3.217,,,,485.552080700174,490.54962160019204,490.54962910013273,490.5661116000265,502.582925000228,502.54995759995654,,,,,,,,,,,,,,,,,,,,,,,,,,,,,sub-041,44.8,42.1,45.75,COM3,2024-06-10_13h35.03.061,2024_RDpaindiscrimination_maintask,2023.2.3,60.00218412407347,2024-06-10 13h35.26.886857 -0400,
0,0,0,0,,,,,1,0,1,0,,,,,0,0,0,0,508.2329943999648,,,,,,,,,,,,,,0,inactive,,,,,,,,,,,,,,,505.78628170024604,508.21662140032277,508.216953500174,513.2164731998928,513.2164803002961,513.2329855002463,521.2164063001983,521.2164063001983,524.1832166002132,524.2164839003235,524.2164839003235,524.2000200999901,4.54,4.26,454,426,8,1.2,0.75,pic-present,1,n,0.9284957996569574,None,,,,,sub-041,44.8,42.1,45.75,COM3,2024-06-10_13h35.03.061,2024_RDpaindiscrimination_maintask,2023.2.3,60.00218412407347,2024-06-10 13h35.26.886857 -0400,
0,0,0,0,,,,,1,0,1,0,,,,,1,0,1,0,524.2164839003235,,,,,,,,,,,,,,1,active,,,,,,,,,,,,,,,,,524.200568200089,529.2000613999553,529.2000700999051,529.216518400237,537.1999802002683,537.1999802002683,540.1667285002768,540.200019299984,540.200019299984,540.1835452001542,3.61,5.19,361,519,8,1.2,0.75,pic-absent,0,m,0.46900289971381426,None,,,,,sub-041,44.8,42.1,45.75,COM3,2024-06-10_13h35.03.061,2024_RDpaindiscrimination_maintask,2023.2.3,60.00218412407347,2024-06-10 13h35.26.886857 -0400,
0,0,0,0,,,,,1,0,1,0,,,,,2,0,2,0,540.200019299984,,,,,,,,,,,,,,2,inactive,,,,,,,,,,,,,,,,,540.1840240000747,545.183627600316,545.1836353000253,545.1999806999229,553.1834816001356,553.1834816001356,556.150201600045,556.1835284000263,556.1835284000263,556.167070100084,4.56,4.24,455,424,8,1.2,0.75,pic-present,1,n,0.6701778001151979,None,,,,,sub-041,44.8,42.1,45.75,COM3,2024-06-10_13h35.03.061,2024_RDpaindiscrimination_maintask,2023.2.3,60.00218412407347,2024-06-10 13h35.26.886857 -0400,
0,0,0,0,,,,,1,0,1,0,,,,,3,0,3,0,556.1835284000263,,,,,,,,,,,,,,3,active,,,,,,,,,,,,,,,,,556.167533100117,561.1670746002346,561.167082299944,561.1835071002133,569.1668783002533,569.1668783002533,572.1337053999305,572.1670670001768,572.1670670001768,572.150529500097,3.27,5.53,327,553,8,1.2,0.75,pic-absent,0,m,0.4421115997247398,None,,,,,sub-041,44.8,42.1,45.75,COM3,2024-06-10_13h35.03.061,2024_RDpaindiscrimination_maintask,2023.2.3,60.00218412407347,2024-06-10 13h35.26.886857 -0400,
0,0,0,0,,,,,2,0,2,0,0,0,0,0,,,,,573.6502586002462,,,,,,572.1510258000344,573.6339883999899,,,,,,,0,inactive,44.8,590.6343716001138,592.7038636999205,56.49999999999994,2.051,,,,573.6343384003267,578.6339239003137,578.6339320000261,578.6504315999337,590.6672265003435,590.6343638002872,,,,,,,,,,,,,,,,,,,,,,,,,,,,,sub-041,44.8,42.1,45.75,COM3,2024-06-10_13h35.03.061,2024_RDpaindiscrimination_maintask,2023.2.3,60.00218412407347,2024-06-10 13h35.26.886857 -0400,
0,0,0,0,,,,,2,0,2,0,1,0,1,0,,,,,592.7171767000109,,,,,,,,,,,,,,1,active,44.8,609.7010547001846,613.0689519001171,65.99999999999984,3.349,,,,592.7046648999676,597.7007842003368,597.7007917002775,597.7173049999401,609.7340061003342,609.7010472998954,,,,,,,,,,,,,,,,,,,,,,,,,,,,,sub-041,44.8,42.1,45.75,COM3,2024-06-10_13h35.03.061,2024_RDpaindiscrimination_maintask,2023.2.3,60.00218412407347,2024-06-10 13h35.26.886857 -0400,
0,0,0,0,,,,,2,0,2,0,,,,,0,0,0,0,614.6507716001943,,,,,,,,,,,,,,2,active,,,,,,,,,,,,,,,613.0695233000442,614.6363666001707,614.6367033002898,619.6342974002473,619.634304500185,619.6508249002509,627.6509325001389,627.6509325001389,630.6009682998993,630.6509564002044,630.6509564002044,630.634539199993,4.3,4.5,430,450,8,1.2,0.75,pic-present,1,n,0.5065009999088943,None,,,,,sub-041,44.8,42.1,45.75,COM3,2024-06-10_13h35.03.061,2024_RDpaindiscrimination_maintask,2023.2.3,60.00218412407347,2024-06-10 13h35.26.886857 -0400,
0,0,0,0,,,,,2,0,2,0,,,,,1,0,1,0,630.6509564002044,,,,,,,,,,,,,,3,inactive,,,,,,,,,,,,,,,,,630.6350842001848,635.6344697000459,635.6344777001068,635.6510242000222,643.6344024003483,643.6344024003483,646.6011473000981,646.6344773001038,646.6344773001038,646.6180112003349,3.72,5.08,372,508,8,1.2,0.75,pic-absent,0,m,0.42298779962584376,None,,,,,sub-041,44.8,42.1,45.75,COM3,2024-06-10_13h35.03.061,2024_RDpaindiscrimination_maintask,2023.2.3,60.00218412407347,2024-06-10 13h35.26.886857 -0400,
0,0,0,0,,,,,2,0,2,0,,,,,2,0,2,0,646.6344773001038,,,,,,,,,,,,,,0,active,,,,,,,,,,,,,,,,,646.6184621001594,651.6179709001444,651.6179784000851,651.6344953998923,659.6179516003467,659.6179516003467,662.5846755001694,662.6179895000532,662.6179895000532,662.6014900002629,3.52,5.28,352,528,8,1.2,0.75,pic-present,1,n,0.6230332003906369,None,,,,,sub-041,44.8,42.1,45.75,COM3,2024-06-10_13h35.03.061,2024_RDpaindiscrimination_maintask,2023.2.3,60.00218412407347,2024-06-10 13h35.26.886857 -0400,
0,0,0,0,,,,,2,0,2,0,,,,,3,0,3,0,662.6179895000532,,,,,,,,,,,,,,1,inactive,,,,,,,,,,,,,,,,,662.601997599937,667.6015361999162,667.6015440002084,667.6179575999267,675.6015094001777,675.6015094001777,678.5680785002187,678.6014076001011,678.6014076001011,678.5849717003293,3.62,5.18,362,518,8,1.2,0.75,pic-present,1,n,0.7754347999580204,None,,,,,sub-041,44.8,42.1,45.75,COM3,2024-06-10_13h35.03.061,2024_RDpaindiscrimination_maintask,2023.2.3,60.00218412407347,2024-06-10 13h35.26.886857 -0400,
0,0,0,0,,,,,3,0,3,0,0,0,0,0,,,,,679.6847578999586,,,,,,678.5854654000141,679.6683893003501,,,,,,,2,active,44.8,696.6686189998873,699.6876778001897,50.49999999999997,3.0,,,,679.668719700072,684.6683131000027,684.6683209999464,684.6848329999484,696.7015905003063,696.6686102002859,,,,,,,,,,,,,,,,,,,,,,,,,,,,,sub-041,44.8,42.1,45.75,COM3,2024-06-10_13h35.03.061,2024_RDpaindiscrimination_maintask,2023.2.3,60.00218412407347,2024-06-10 13h35.26.886857 -0400,
0,0,0,0,,,,,3,0,3,0,1,0,1,0,,,,,699.7016933001578,,,,,,,,,,,,,,3,inactive,44.8,716.6855831001885,718.3717646999285,58.00000000000001,1.667,,,,699.6884417999536,704.6852556001395,704.685262999963,704.7017508000135,716.7185549000278,716.6855746000074,,,,,,,,,,,,,,,,,,,,,,,,,,,,,sub-041,44.8,42.1,45.75,COM3,2024-06-10_13h35.03.061,2024_RDpaindiscrimination_maintask,2023.2.3,60.00218412407347,2024-06-10 13h35.26.886857 -0400,
0,0,0,0,,,,,3,0,3,0,,,,,0,0,0,0,719.4185176999308,,,,,,,,,,,,,,0,active,,,,,,,,,,,,,,,718.372326800134,719.4020827999339,719.4024181002751,724.4020672002807,724.4020743002184,724.4185573002324,732.4020557003096,732.4020557003096,735.3686714000069,735.4020827999339,735.4020827999339,735.3856049999595,4.29,4.51,429,451,8,1.2,0.75,pic-absent,0,m,0.5345774004235864,None,,,,,sub-041,44.8,42.1,45.75,COM3,2024-06-10_13h35.03.061,2024_RDpaindiscrimination_maintask,2023.2.3,60.00218412407347,2024-06-10 13h35.26.886857 -0400,
0,0,0,0,,,,,3,0,3,0,,,,,1,0,1,0,735.4020827999339,,,,,,,,,,,,,,1,active,,,,,,,,,,,,,,,,,735.3861445002258,740.3856004001573,740.3856099001132,740.402073699981,748.3855272000656,748.3855272000656,751.3521992000751,751.3855481003411,751.3855481003411,751.3690688000061,3.47,5.33,347,533,8,1.2,0.75,pic-present,1,n,0.45557980006560683,None,,,,,sub-041,44.8,42.1,45.75,COM3,2024-06-10_13h35.03.061,2024_RDpaindiscrimination_maintask,2023.2.3,60.00218412407347,2024-06-10 13h35.26.886857 -0400,
0,0,0,0,,,,,3,0,3,0,,,,,2,0,2,0,751.3855481003411,,,,,,,,,,,,,,2,inactive,,,,,,,,,,,,,,,,,751.3695543003269,756.3690627003089,756.3690702999011,756.3855973002501,764.3690623003058,764.3690623003058,767.3357625999488,767.369098899886,767.369098899886,767.3525771000423,3.37,5.43,337,543,8,1.2,0.75,pic-absent,0,m,0.4635874000377953,None,,,,,sub-041,44.8,42.1,45.75,COM3,2024-06-10_13h35.03.061,2024_RDpaindiscrimination_maintask,2023.2.3,60.00218412407347,2024-06-10 13h35.26.886857 -0400,
0,0,0,0,,,,,3,0,3,0,,,,,3,0,3,0,767.369098899886,,,,,,,,,,,,,,3,inactive,,,,,,,,,,,,,,,,,767.3530823001638,772.352600700222,772.3526085000485,772.369126399979,780.3525279001333,780.3525279001333,783.3191468999721,783.3525112001225,783.3525112001225,783.3359893001616,4.71,4.09,471,409,8,1.2,0.75,pic-absent,0,m,0.42445489997044206,None,,,,,sub-041,44.8,42.1,45.75,COM3,2024-06-10_13h35.03.061,2024_RDpaindiscrimination_maintask,2023.2.3,60.00218412407347,2024-06-10 13h35.26.886857 -0400,
1,0,1,0,0,0,0,0,,,,,,,,,,,,,856.2867074003443,,,,850.337064600084,855.3703268002719,855.3703350001015,856.2702918001451,856.2705935002305,861.2702558003366,861.2702633999288,861.286860300228,873.3034761999734,873.2707227002829,0,inactive,44.8,873.2709586001001,875.1556918001734,27.49999999999997,1.862,,,,,,,,,,,,,,,,,,,,,,,,,,,,,,,,,,783.3364499001764,850.3369346000254,,,sub-041,44.8,42.1,45.75,COM3,2024-06-10_13h35.03.061,2024_RDpaindiscrimination_maintask,2023.2.3,60.00218412407347,2024-06-10 13h35.26.886857 -0400,
1,0,1,0,1,0,1,0,,,,,,,,,,,,,875.1701489002444,,,,,,,,875.1565719000064,880.1537492000498,880.1537558999844,880.1702974000946,892.1870765001513,892.1543211000971,1,active,42.1,892.1544727999717,896.4068308002315,23.500000000000068,4.232,,,,,,,,,,,,,,,,,,,,,,,,,,,,,,,,,,,,,,sub-041,44.8,42.1,45.75,COM3,2024-06-10_13h35.03.061,2024_RDpaindiscrimination_maintask,2023.2.3,60.00218412407347,2024-06-10 13h35.26.886857 -0400,
1,0,1,0,2,0,2,0,,,,,,,,,,,,,896.4203850999475,,,,,,,,896.4076314000413,901.40394320013,901.4039497999474,901.4203572003171,913.4372792001814,913.4044091003016,2,inactive,44.8,913.4045547000133,915.3889550999738,55.99999999999991,1.965,,,,,,,,,,,,,,,,,,,,,,,,,,,,,,,,,,,,,,sub-041,44.8,42.1,45.75,COM3,2024-06-10_13h35.03.061,2024_RDpaindiscrimination_maintask,2023.2.3,60.00218412407347,2024-06-10 13h35.26.886857 -0400,
1,0,1,0,3,0,3,0,,,,,,,,,,,,,915.4040176002309,,,,,,,,915.3896949002519,920.3876281003468,920.387634200044,920.4040148002096,932.4208122999407,932.387969400268,3,active,42.1,932.3881200002506,934.489042500034,16.500000000000032,2.082,,,,,,,,,,,,,,,,,,,,,,,,,,,,,,,,,,,,,,sub-041,44.8,42.1,45.75,COM3,2024-06-10_13h35.03.061,2024_RDpaindiscrimination_maintask,2023.2.3,60.00218412407347,2024-06-10 13h35.26.886857 -0400,
1,0,1,0,4,0,4,0,,,,,,,,,,,,,934.5041676000692,,,,,,,,934.4898474002257,939.4877647003159,939.4877705001272,939.5042524999008,951.5210075001232,951.4880937999114,0,active,42.1,951.4882372003049,954.455865399912,14.500000000000101,2.949,,,,,,,,,,,,,,,,,,,,,,,,,,,,,,,,,,,,,,sub-041,44.8,42.1,45.75,COM3,2024-06-10_13h35.03.061,2024_RDpaindiscrimination_maintask,2023.2.3,60.00218412407347,2024-06-10 13h35.26.886857 -0400,
1,0,1,0,5,0,5,0,,,,,,,,,,,,,954.470965300221,,,,,,,,954.4566542003304,959.4545464999974,959.4545529000461,959.4710464002565,971.4878386002965,971.4550386001356,1,inactive,44.8,971.455189500004,973.8568362002261,59.49999999999993,2.383,,,,,,,,,,,,,,,,,,,,,,,,,,,,,,,,,,,,,,sub-041,44.8,42.1,45.75,COM3,2024-06-10_13h35.03.061,2024_RDpaindiscrimination_maintask,2023.2.3,60.00218412407347,2024-06-10 13h35.26.886857 -0400,
1,0,1,0,6,0,6,0,,,,,,,,,,,,,973.8712836001068,,,,,,,,973.8576893000863,978.8548451000825,978.8548512998968,978.8712524999864,990.888144500088,990.8554016998969,2,active,42.1,990.855554100126,993.5913884001784,39.00000000000014,2.717,,,,,,,,,,,,,,,,,,,,,,,,,,,,,,,,,,,,,,sub-041,44.8,42.1,45.75,COM3,2024-06-10_13h35.03.061,2024_RDpaindiscrimination_maintask,2023.2.3,60.00218412407347,2024-06-10 13h35.26.886857 -0400,
1,0,1,0,7,0,7,0,,,,,,,,,,,,,993.6047539003193,,,,,,,,993.5921960999258,998.58829279989,998.588300100062,998.6047638002783,1010.6217225003056,1010.5887976000085,3,inactive,44.8,1010.5889432001859,1013.6245809001848,36.99999999999995,3.017,,,,,,,,,,,,,,,,,,,,,,,,,,,,,,,,,,,,,,sub-041,44.8,42.1,45.75,COM3,2024-06-10_13h35.03.061,2024_RDpaindiscrimination_maintask,2023.2.3,60.00218412407347,2024-06-10 13h35.26.886857 -0400,
1,0,1,0,8,0,8,0,,,,,,,,,,,,,1013.638339899946,,,,,,,,1013.625395399984,1018.6218620999716,1018.6218687002547,1018.638347600121,1030.6551502998918,1030.6223160000518,0,active,42.1,1030.6224704002962,1032.7612080001272,12.500000000000028,2.12,,,,,,,,,,,,,,,,,,,,,,,,,,,,,,,,,,,,,,sub-041,44.8,42.1,45.75,COM3,2024-06-10_13h35.03.061,2024_RDpaindiscrimination_maintask,2023.2.3,60.00218412407347,2024-06-10 13h35.26.886857 -0400,
1,0,1,0,9,0,9,0,,,,,,,,,,,,,1032.7719104001299,,,,,,,,1032.7622202001512,1037.7554215001874,1037.7554283998907,1037.7718942002393,1049.7886852002703,1049.755835799966,1,inactive,44.8,1049.7559835999273,1052.2238201000728,73.99999999999989,2.448,,,,,,,,,,,,,,,,,,,,,,,,,,,,,,,,,,,,,,sub-041,44.8,42.1,45.75,COM3,2024-06-10_13h35.03.061,2024_RDpaindiscrimination_maintask,2023.2.3,60.00218412407347,2024-06-10 13h35.26.886857 -0400,
1,0,1,0,10,0,10,0,,,,,,,,,,,,,1052.2387053002603,,,,,,,,1052.2246074001305,1057.2222853000276,1057.2222919003107,1057.2388173001818,1069.2555772000924,1069.2226964002475,2,active,42.1,1069.2228426001966,1071.6074212999083,22.000000000000064,2.366,,,,,,,,,,,,,,,,,,,,,,,,,,,,,,,,,,,,,,sub-041,44.8,42.1,45.75,COM3,2024-06-10_13h35.03.061,2024_RDpaindiscrimination_maintask,2023.2.3,60.00218412407347,2024-06-10 13h35.26.886857 -0400,
1,0,1,0,11,0,11,0,,,,,,,,,,,,,1071.6222850000486,,,,,,,,1071.6082113999873,1076.6058020000346,1076.6058089002036,1076.6222681999207,1088.6391239003278,1088.6061924002133,3,active,42.1,1088.6063435999677,1091.9753634999506,22.00000000000017,3.35,,,,,,,,,,,,,,,,,,,,,,,,,,,,,,,,,,,,,,sub-041,44.8,42.1,45.75,COM3,2024-06-10_13h35.03.061,2024_RDpaindiscrimination_maintask,2023.2.3,60.00218412407347,2024-06-10 13h35.26.886857 -0400,
1,0,1,0,12,0,12,0,,,,,,,,,,,,,1091.9891804000363,,,,,,,,1091.9761419002898,1096.9726734003052,1096.9726807000116,1096.9892088002525,1109.005960199982,1108.9731441000476,0,inactive,44.8,1108.973289300222,1110.624234000221,76.00000000000001,1.632,,,,,,,,,,,,,,,,,,,,,,,,,,,,,,,,,,,,,,sub-041,44.8,42.1,45.75,COM3,2024-06-10_13h35.03.061,2024_RDpaindiscrimination_maintask,2023.2.3,60.00218412407347,2024-06-10 13h35.26.886857 -0400,
1,0,1,0,13,0,13,0,,,,,,,,,,,,,1110.6393639002927,,,,,,,,1110.6250513000414,1115.6229468001984,1115.6229534000158,1115.6393687999807,1127.739464000333,1127.6233739000745,1,active,42.1,1127.6235197000206,1129.1083337003365,20.0,1.38,,,,,,,,,,,,,,,,,,,,,,,,,,,,,,,,,,,,,,sub-041,44.8,42.1,45.75,COM3,2024-06-10_13h35.03.061,2024_RDpaindiscrimination_maintask,2023.2.3,60.00218412407347,2024-06-10 13h35.26.886857 -0400,
1,0,1,0,14,0,14,0,,,,,,,,,,,,,1129.12291679997,,,,,,,,1129.1091410000809,1134.1064500999637,1134.1064566001296,1134.12289889995,1146.1397553998977,1146.10691400012,2,inactive,44.8,1146.1070628003217,1148.359056300018,72.99999999999989,2.231,,,,,,,,,,,,,,,,,,,,,,,,,,,,,,,,,,,,,,sub-041,44.8,42.1,45.75,COM3,2024-06-10_13h35.03.061,2024_RDpaindiscrimination_maintask,2023.2.3,60.00218412407347,2024-06-10 13h35.26.886857 -0400,
1,0,1,0,15,0,15,0,,,,,,,,,,,,,1148.3730858000927,,,,,,,,1148.3592892000452,1153.3566686999984,1153.356674599927,1153.3731996002607,1165.389916300308,1165.3570519001223,3,inactive,44.8,1165.3572062002495,1169.2097628000192,77.9999999999998,3.834,,,,,,,,,,,,,,,,,,,,,,,,,,,,,,,,,,,,,,sub-041,44.8,42.1,45.75,COM3,2024-06-10_13h35.03.061,2024_RDpaindiscrimination_maintask,2023.2.3,60.00218412407347,2024-06-10 13h35.26.886857 -0400,
1,0,1,0,,,,,0,0,0,0,0,0,0,0,,,,,1188.3068055999465,,,,,,1187.4409270002507,1188.2903964002617,,,,,,,0,inactive,44.8,1205.2907364000566,1208.8771665999666,72.49999999999983,3.568,1169.2103999000974,1169.2233394999057,1187.4405173002742,1188.290697700344,1193.2903479998931,1193.2903555002995,1193.3068878003396,1205.323648300022,1205.2907281001098,,,,,,,,,,,,,,,,,,,,,,,,,,,,,sub-041,44.8,42.1,45.75,COM3,2024-06-10_13h35.03.061,2024_RDpaindiscrimination_maintask,2023.2.3,60.00218412407347,2024-06-10 13h35.26.886857 -0400,
1,0,1,0,,,,,0,0,0,0,1,0,1,0,,,,,1208.8904041000642,,,,,,,,,,,,,,1,active,44.8,1225.874275600072,1229.2268964000978,66.99999999999987,3.334,,,,1208.87796910014,1213.8739338000305,1213.8739411002025,1213.8904531002045,1225.9071992002428,1225.8742681001313,,,,,,,,,,,,,,,,,,,,,,,,,,,,,sub-041,44.8,42.1,45.75,COM3,2024-06-10_13h35.03.061,2024_RDpaindiscrimination_maintask,2023.2.3,60.00218412407347,2024-06-10 13h35.26.886857 -0400,
1,0,1,0,,,,,0,0,0,0,,,,,0,0,0,0,1230.7239735000767,,,,,,,,,,,,,,2,active,,,,,,,,,,,,,,,1229.2274382002652,1230.707600499969,1230.7079145000316,1235.7074219998904,1235.7074297000654,1235.7239617002197,1243.707367700059,1243.707367700059,1246.6741327000782,1246.7075148001313,1246.7075148001313,1246.690952300094,3.65,5.15,365,515,8,1.2,0.75,pic-present,1,n,0.9372275997884572,None,,,,,sub-041,44.8,42.1,45.75,COM3,2024-06-10_13h35.03.061,2024_RDpaindiscrimination_maintask,2023.2.3,60.00218412407347,2024-06-10 13h35.26.886857 -0400,
1,0,1,0,,,,,0,0,0,0,,,,,1,0,1,0,1246.7075148001313,,,,,,,,,,,,,,3,active,,,,,,,,,,,,,,,,,1246.6915080999024,1251.6948453001678,1251.6948529002257,1251.7074247002602,1259.69086230034,1259.69086230034,1262.65757710021,1262.6908963001333,1262.6908963001333,1262.674409000203,3.86,4.94,386,494,8,1.2,0.75,pic-present,1,n,0.6657563000917435,None,,,,,sub-041,44.8,42.1,45.75,COM3,2024-06-10_13h35.03.061,2024_RDpaindiscrimination_maintask,2023.2.3,60.00218412407347,2024-06-10 13h35.26.886857 -0400,
1,0,1,0,,,,,0,0,0,0,,,,,2,0,2,0,1262.6908963001333,,,,,,,,,,,,,,0,inactive,,,,,,,,,,,,,,,,,1262.6748526003212,1267.6744412002154,1267.6744488002732,1267.6909444001503,1275.6743958001025,1275.6743958001025,1278.6411115000956,1278.674399800133,1278.674399800133,1278.6579141002148,3.74,5.06,374,505,8,1.2,0.75,pic-absent,0,m,0.678090900182724,None,,,,,sub-041,44.8,42.1,45.75,COM3,2024-06-10_13h35.03.061,2024_RDpaindiscrimination_maintask,2023.2.3,60.00218412407347,2024-06-10 13h35.26.886857 -0400,
1,0,1,0,,,,,0,0,0,0,,,,,3,0,3,0,1278.674399800133,,,,,,,,,,,,,,1,active,,,,,,,,,,,,,,,,,1278.6584338000976,1283.658011900261,1283.658019500319,1283.6744495001622,1291.6579609001055,1291.6579609001055,1294.6246098000556,1294.6579987001605,1294.6579987001605,1294.6415079999715,3.72,5.08,372,508,8,1.2,0.75,pic-present,1,n,0.590917999856174,None,,,,,sub-041,44.8,42.1,45.75,COM3,2024-06-10_13h35.03.061,2024_RDpaindiscrimination_maintask,2023.2.3,60.00218412407347,2024-06-10 13h35.26.886857 -0400,
1,0,1,0,,,,,1,0,1,0,0,0,0,0,,,,,1295.6746185002849,,,,,,1294.6419887002558,1295.658222200349,,,,,,,2,active,44.8,1312.6584773003124,1315.2929743002169,52.5000000000001,2.615,,,,1295.6585144000128,1300.6581582999788,1300.658165700268,1300.674634499941,1312.691451100167,1312.658468700014,,,,,,,,,,,,,,,,,,,,,,,,,,,,,sub-041,44.8,42.1,45.75,COM3,2024-06-10_13h35.03.061,2024_RDpaindiscrimination_maintask,2023.2.3,60.00218412407347,2024-06-10 13h35.26.886857 -0400,
1,0,1,0,,,,,1,0,1,0,1,0,1,0,,,,,1315.3081907001324,,,,,,,,,,,,,,3,inactive,44.8,1332.292195700109,1334.5595464003272,52.499999999999886,2.247,,,,1315.2937561003491,1320.2917078998871,1320.291714699939,1320.308209599927,1332.3250893000513,1332.2921881000511,,,,,,,,,,,,,,,,,,,,,,,,,,,,,sub-041,44.8,42.1,45.75,COM3,2024-06-10_13h35.03.061,2024_RDpaindiscrimination_maintask,2023.2.3,60.00218412407347,2024-06-10 13h35.26.886857 -0400,
1,0,1,0,,,,,1,0,1,0,,,,,0,0,0,0,1335.1416855002753,,,,,,,,,,,,,,0,inactive,,,,,,,,,,,,,,,1334.5600354000926,1335.1252951999195,1335.12560460018,1340.125222899951,1340.125230500009,1340.141720900312,1348.1252133999951,1348.1252133999951,1351.091961900238,1351.125352700241,1351.125352700241,1351.1087997001596,4.0,4.8,400,480,8,1.2,0.75,pic-absent,0,m,0.627380299847573,None,,,,,sub-041,44.8,42.1,45.75,COM3,2024-06-10_13h35.03.061,2024_RDpaindiscrimination_maintask,2023.2.3,60.00218412407347,2024-06-10 13h35.26.886857 -0400,
1,0,1,0,,,,,1,0,1,0,,,,,1,0,1,0,1351.125352700241,,,,,,,,,,,,,,1,active,,,,,,,,,,,,,,,,,1351.1093053999357,1356.108871200122,1356.108879600186,1356.125345800072,1364.108672299888,1364.108672299888,1367.075377299916,1367.108706400264,1367.108706400264,1367.092224900145,3.77,5.03,377,503,8,1.2,0.75,pic-absent,0,m,0.4036832000128925,None,,,,,sub-041,44.8,42.1,45.75,COM3,2024-06-10_13h35.03.061,2024_RDpaindiscrimination_maintask,2023.2.3,60.00218412407347,2024-06-10 13h35.26.886857 -0400,
1,0,1,0,,,,,1,0,1,0,,,,,2,0,2,0,1367.108706400264,,,,,,,,,,,,,,2,active,,,,,,,,,,,,,,,,,1367.0927285002545,1372.0923228003085,1372.0923305000179,1372.1087565999478,1380.0921820001677,1380.0921820001677,1383.0588416000828,1383.0921495002694,1383.0921495002694,1383.07568190014,3.66,5.14,366,514,8,1.2,0.75,pic-present,1,n,0.5044925999827683,None,,,,,sub-041,44.8,42.1,45.75,COM3,2024-06-10_13h35.03.061,2024_RDpaindiscrimination_maintask,2023.2.3,60.00218412407347,2024-06-10 13h35.26.886857 -0400,
1,0,1,0,,,,,1,0,1,0,,,,,3,0,3,0,1383.0921495002694,,,,,,,,,,,,,,3,inactive,,,,,,,,,,,,,,,,,1383.0761997001246,1388.0757288001478,1388.0757369999774,1388.0922242999077,1396.0756483003497,1396.0756483003497,1399.0423504998907,1399.0756815001369,1399.0756815001369,1399.059269499965,3.67,5.13,367,513,8,1.2,0.75,pic-present,1,n,0.4204894001595676,None,,,,,sub-041,44.8,42.1,45.75,COM3,2024-06-10_13h35.03.061,2024_RDpaindiscrimination_maintask,2023.2.3,60.00218412407347,2024-06-10 13h35.26.886857 -0400,
1,0,1,0,,,,,2,0,2,0,0,0,0,0,,,,,1399.47568579996,,,,,,1399.05979700014,1399.4593465002254,,,,,,,0,active,44.8,1416.4597058002837,1418.9619419001974,46.00000000000012,2.483,,,,1399.4596478999592,1404.4592333999462,1404.459240600001,1404.4757056003436,1416.4924977002665,1416.4596973001026,,,,,,,,,,,,,,,,,,,,,,,,,,,,,sub-041,44.8,42.1,45.75,COM3,2024-06-10_13h35.03.061,2024_RDpaindiscrimination_maintask,2023.2.3,60.00218412407347,2024-06-10 13h35.26.886857 -0400,
1,0,1,0,,,,,2,0,2,0,1,0,1,0,,,,,1418.975897999946,,,,,,,,,,,,,,1,inactive,44.8,1435.9598656999879,1438.294182300102,60.99999999999993,2.316,,,,1418.962750100065,1423.9594431002624,1423.9594503999688,1423.9759484003298,1435.9928286001086,1435.95985809993,,,,,,,,,,,,,,,,,,,,,,,,,,,,,sub-041,44.8,42.1,45.75,COM3,2024-06-10_13h35.03.061,2024_RDpaindiscrimination_maintask,2023.2.3,60.00218412407347,2024-06-10 13h35.26.886857 -0400,
1,0,1,0,,,,,2,0,2,0,,,,,0,0,0,0,1438.892768499907,,,,,,,,,,,,,,2,active,,,,,,,,,,,,,,,1438.294729700312,1438.87638780009,1438.8767105001025,1443.8763073999435,1443.8763151001185,1443.8928384999745,1451.8763216002844,1451.8763216002844,1454.8429394001141,1454.876270700246,1454.876270700246,1454.8597917002626,4.15,4.65,415,465,8,1.2,0.75,pic-absent,0,m,0.8481898000463843,None,,,,,sub-041,44.8,42.1,45.75,COM3,2024-06-10_13h35.03.061,2024_RDpaindiscrimination_maintask,2023.2.3,60.00218412407347,2024-06-10 13h35.26.886857 -0400,
1,0,1,0,,,,,2,0,2,0,,,,,1,0,1,0,1454.876270700246,,,,,,,,,,,,,,3,inactive,,,,,,,,,,,,,,,,,1454.8603429999202,1459.8598128003068,1459.859820399899,1459.8763247001916,1467.8598775002174,1467.8598775002174,1470.8264437001199,1470.8597805001773,1470.8597805001773,1470.84331150027,3.43,5.37,343,537,8,1.2,0.75,pic-present,0,m,1.0444794003851712,None,,,,,sub-041,44.8,42.1,45.75,COM3,2024-06-10_13h35.03.061,2024_RDpaindiscrimination_maintask,2023.2.3,60.00218412407347,2024-06-10 13h35.26.886857 -0400,
1,0,1,0,,,,,2,0,2,0,,,,,2,0,2,0,1470.8597805001773,,,,,,,,,,,,,,0,inactive,,,,,,,,,,,,,,,,,1470.8437625002116,1475.8433211999945,1475.8433290002868,1475.8598249000497,1483.8433966003358,1483.8433966003358,1486.8099811002612,1486.843313400168,1486.843313400168,1486.8268206003122,3.58,5.22,358,522,8,1.2,0.75,pic-present,1,n,0.3488986003212631,None,,,,,sub-041,44.8,42.1,45.75,COM3,2024-06-10_13h35.03.061,2024_RDpaindiscrimination_maintask,2023.2.3,60.00218412407347,2024-06-10 13h35.26.886857 -0400,
1,0,1,0,,,,,2,0,2,0,,,,,3,0,3,0,1486.843313400168,,,,,,,,,,,,,,1,active,,,,,,,,,,,,,,,,,1486.8273307001218,1491.8268492002971,1491.8268570001237,1491.843447000254,1499.8268253002316,1499.8268253002316,1502.7935069003142,1502.8268166002817,1502.8268166002817,1502.810327500105,4.16,4.64,416,463,8,1.2,0.75,pic-absent,0,m,1.0176907000131905,None,,,,,sub-041,44.8,42.1,45.75,COM3,2024-06-10_13h35.03.061,2024_RDpaindiscrimination_maintask,2023.2.3,60.00218412407347,2024-06-10 13h35.26.886857 -0400,
1,0,1,0,,,,,3,0,3,0,0,0,0,0,,,,,1503.6435306002386,,,,,,1502.8108426001854,1503.6270991000347,,,,,,,2,inactive,44.8,1520.6273425999098,1523.0453971000388,39.99999999999993,2.398,,,,1503.627390400041,1508.6270389002748,1508.6270473003387,1508.6435480001383,1520.6604885002598,1520.6273341001943,,,,,,,,,,,,,,,,,,,,,,,,,,,,,sub-041,44.8,42.1,45.75,COM3,2024-06-10_13h35.03.061,2024_RDpaindiscrimination_maintask,2023.2.3,60.00218412407347,2024-06-10 13h35.26.886857 -0400,
1,0,1,0,,,,,3,0,3,0,1,0,1,0,,,,,1523.0604520998895,,,,,,,,,,,,,,3,active,44.8,1540.0442600003444,1542.1287644002587,37.49999999999997,2.065,,,,1523.0456449999474,1528.0439432002604,1528.0439500999637,1528.0604094001465,1540.0772088998929,1540.0442526000552,,,,,,,,,,,,,,,,,,,,,,,,,,,,,sub-041,44.8,42.1,45.75,COM3,2024-06-10_13h35.03.061,2024_RDpaindiscrimination_maintask,2023.2.3,60.00218412407347,2024-06-10 13h35.26.886857 -0400,
1,0,1,0,,,,,3,0,3,0,,,,,0,0,0,0,1542.5106180999428,,,,,,,,,,,,,,0,inactive,,,,,,,,,,,,,,,1542.1289315000176,1542.4942137002945,1542.4945212001912,1547.4942208002321,1547.4942278000526,1547.5106382002123,1555.4940828001127,1555.4940828001127,1558.4607835002244,1558.4940756000578,1558.4940756000578,1558.4775624000467,3.87,4.93,387,493,8,1.2,0.75,pic-present,1,n,0.5460823001340032,None,,,,,sub-041,44.8,42.1,45.75,COM3,2024-06-10_13h35.03.061,2024_RDpaindiscrimination_maintask,2023.2.3,60.00218412407347,2024-06-10 13h35.26.886857 -0400,
1,0,1,0,,,,,3,0,3,0,,,,,1,0,1,0,1558.4940756000578,,,,,,,,,,,,,,1,inactive,,,,,,,,,,,,,,,,,1558.4780997000635,1563.477585399989,1563.4775932999328,1563.4940939000808,1571.4775066003203,1571.4775066003203,1574.4442074000835,1574.4775451999158,1574.4775451999158,1574.461092500016,4.34,4.46,434,446,8,1.2,0.75,pic-absent,1,n,0.4627863001078367,None,,,,,sub-041,44.8,42.1,45.75,COM3,2024-06-10_13h35.03.061,2024_RDpaindiscrimination_maintask,2023.2.3,60.00218412407347,2024-06-10 13h35.26.886857 -0400,
1,0,1,0,,,,,3,0,3,0,,,,,2,0,2,0,1574.4775451999158,,,,,,,,,,,,,,2,active,,,,,,,,,,,,,,,,,1574.4615398999304,1579.461137900129,1579.4611454000697,1579.4775935001671,1587.461087900214,1587.461087900214,1590.427795900032,1590.4610776002519,1590.4610776002519,1590.4446316999383,4.71,4.09,471,409,8,1.2,0.75,pic-absent,1,n,0.47064789989963174,None,,,,,sub-041,44.8,42.1,45.75,COM3,2024-06-10_13h35.03.061,2024_RDpaindiscrimination_maintask,2023.2.3,60.00218412407347,2024-06-10 13h35.26.886857 -0400,
1,0,1,0,,,,,3,0,3,0,,,,,3,0,3,0,1590.4610776002519,,,,,,,,,,,,,,3,inactive,,,,,,,,,,,,,,,,,1590.4451211001724,1595.4446375002153,1595.4446451002732,1595.4610954001546,1603.4446028000675,1603.4446028000675,1606.4112209999003,1606.4445060002618,1606.4445060002618,1606.4280648999847,4.17,4.63,417,463,8,1.2,0.75,pic-absent,0,m,0.5757411997765303,None,,,,,sub-041,44.8,42.1,45.75,COM3,2024-06-10_13h35.03.061,2024_RDpaindiscrimination_maintask,2023.2.3,60.00218412407347,2024-06-10 13h35.26.886857 -0400,
,,,,,,,,,,,,,,,,,,,,,,,,,,,,,,,,,,,,,,,,,,,,,,,,,,,,,,,,,,,,,,,,,,,,,,,,,,1606.4285399001092,1608.8615472000092,1608.8615687000565,1618.8615335002542,,,,,,,,,,,
