trials.thisRepN,trials.thisTrialN,trials.thisN,trials.thisIndex,loop_test.thisRepN,loop_test.thisTrialN,loop_test.thisN,loop_test.thisIndex,loop_eval_discri.thisRepN,loop_eval_discri.thisTrialN,loop_eval_discri.thisN,loop_eval_discri.thisIndex,loop_eval.thisRepN,loop_eval.thisTrialN,loop_eval.thisN,loop_eval.thisIndex,loop_discri.thisRepN,loop_discri.thisTrialN,loop_discri.thisN,loop_discri.thisIndex,thisRow.t,notes,Set_up.started,Set_up.stopped,electrode_check.started,electrode_check.stopped,instructions_eval.started,instructions_eval.stopped,pause_5_test.started,pause_5_test.stopped,Phase_Test.started,thermode_locali.started,Phase_Test.stopped,loca_thermode,condition,temp_trial_sent,eval_douleur.started,eval_douleur.stopped,ratingScale.response,ratingScale.rt,thermode_locali.stopped,Fin_test.started,text.started,Fin_test.stopped,pause_5_EVA.started,pause_5_EVA.stopped,tâche_EVA.started,thermode_locali_EVA.started,thermode_locali_EVA.stopped,tâche_EVA.stopped,instructions_discrim.started,instructions_discrim.stopped,pause_5_pic.started,pause_5_pic.stopped,tâche_PIC.started,thermode_locali_pic.started,percu_or.started,responser.started,thermode_locali_pic.stopped,percu_or.stopped,responser.stopped,tâche_PIC.stopped,dur_plateau1,dur_plateau2,dur_plateau1_sent,dur_plateau2_sent,start_plateau_2_resp,dur_pic,dur_rise,pic_presence,pic_response,discrimin_resp.keys,discrimin_resp.rt,discrimin_resp.duration,break_entre_bloc.started,break_entre_bloc.stopped,merci.started,merci.stopped,participant,temp_flat,temp_active,temp_pic_set,com_thermode,date,expName,psychopyVersion,frameRate,expStart,
0,0,0,0,0,0,0,0,,,,,,,,,,,,,116.56089679989964,,0.009751700097694993,5.37682419992052,5.377157300012186,112.19450010010041,112.19450909993611,116.52785610011779,116.52817990002222,121.54445070005022,121.54445690009743,121.5610571000725,133.54455380002037,0,active,44.0,133.54478459991515,136.68008839990944,5.4999999999999964,3.112,,,,,,,,,,,,,,,,,,,,,,,,,,,,,,,,,,,,,,,sub-029,45.5,44,46.3,COM3,2024-02-22_09h36.26.226,2024_RDpaindiscrimination_maintask,2023.2.3,59.99250095012014,2024-02-22 09h36.43.588421 -0500,
0,0,0,0,1,0,1,0,,,,,,,,,,,,,136.69460480008274,,,,,,,,136.68103450001217,141.67809469997883,141.67810079990886,141.6945658000186,153.67850790009834,1,inactive,45.5,153.6786513000261,157.21464010002092,38.49999999999997,3.517,153.71140179992653,,,,,,,,,,,,,,,,,,,,,,,,,,,,,,,,,,,,,,sub-029,45.5,44,46.3,COM3,2024-02-22_09h36.26.226,2024_RDpaindiscrimination_maintask,2023.2.3,59.99250095012014,2024-02-22 09h36.43.588421 -0500,
0,0,0,0,2,0,2,0,,,,,,,,,,,,,157.2281305999495,,,,,,,,157.21553090005182,162.2116292999126,162.21163520007394,162.2281043000985,174.21207219990902,2,active,44.0,174.21221469994634,179.6629902999848,29.000000000000004,5.432,174.2449433999136,,,,,,,,,,,,,,,,,,,,,,,,,,,,,,,,,,,,,,sub-029,45.5,44,46.3,COM3,2024-02-22_09h36.26.226,2024_RDpaindiscrimination_maintask,2023.2.3,59.99250095012014,2024-02-22 09h36.43.588421 -0500,
0,0,0,0,3,0,3,0,,,,,,,,,,,,,179.6783274000045,,,,,,,,179.66373170004226,184.6618681999389,184.66187470010482,184.6783680000808,196.66227250010706,3,inactive,45.5,196.66241670004092,200.64797140005976,62.49999999999993,3.967,196.69517159997486,,,,,,,,,,,,,,,,,,,,,,,,,,,,,,,,,,,,,,sub-029,45.5,44,46.3,COM3,2024-02-22_09h36.26.226,2024_RDpaindiscrimination_maintask,2023.2.3,59.99250095012014,2024-02-22 09h36.43.588421 -0500,
0,0,0,0,4,0,4,0,,,,,,,,,,,,,200.66184849990532,,,,,,,,200.6487463999074,205.64537800010294,205.64538410003297,205.66188700008206,217.64581819996238,0,active,44.0,217.64596090000123,222.6804293000605,22.0,5.015,217.6786921999883,,,,,,,,,,,,,,,,,,,,,,,,,,,,,,,,,,,,,,sub-029,45.5,44,46.3,COM3,2024-02-22_09h36.26.226,2024_RDpaindiscrimination_maintask,2023.2.3,59.99250095012014,2024-02-22 09h36.43.588421 -0500,
0,0,0,0,5,0,5,0,,,,,,,,,,,,,222.69537550001405,,,,,,,,222.6812056999188,227.67893450008705,227.67894069990143,227.6954471000936,239.67940180003643,1,active,44.0,239.67954499996267,243.53113889996894,1.000000000000094,3.833,239.71225330000743,,,,,,,,,,,,,,,,,,,,,,,,,,,,,,,,,,,,,,sub-029,45.5,44,46.3,COM3,2024-02-22_09h36.26.226,2024_RDpaindiscrimination_maintask,2023.2.3,59.99250095012014,2024-02-22 09h36.43.588421 -0500,
0,0,0,0,6,0,6,0,,,,,,,,,,,,,243.54560480010696,,,,,,,,243.53192460001446,248.52914929995313,248.52915520011447,248.54567819996737,260.52961990004405,2,inactive,45.5,260.529760299949,263.79722269997,73.49999999999996,3.248,260.5624720000196,,,,,,,,,,,,,,,,,,,,,,,,,,,,,,,,,,,,,,sub-029,45.5,44,46.3,COM3,2024-02-22_09h36.26.226,2024_RDpaindiscrimination_maintask,2023.2.3,59.99250095012014,2024-02-22 09h36.43.588421 -0500,
0,0,0,0,7,0,7,0,,,,,,,,,,,,,263.81249290006235,,,,,,,,263.79771859990433,268.7960284999572,268.79603430000134,268.8125277000945,280.7965065999888,3,active,44.0,280.7966479999013,284.281520599965,46.00000000000012,3.466,280.82932200003415,,,,,,,,,,,,,,,,,,,,,,,,,,,,,,,,,,,,,,sub-029,45.5,44,46.3,COM3,2024-02-22_09h36.26.226,2024_RDpaindiscrimination_maintask,2023.2.3,59.99250095012014,2024-02-22 09h36.43.588421 -0500,
0,0,0,0,8,0,8,0,,,,,,,,,,,,,284.29597430001013,,,,,,,,284.2822968000546,289.2795758000575,289.279581699986,289.2960719000548,301.27984370011836,0,inactive,45.5,301.27998630004004,304.6814011000097,43.50000000000009,3.382,301.3127389999572,,,,,,,,,,,,,,,,,,,,,,,,,,,,,,,,,,,,,,sub-029,45.5,44,46.3,COM3,2024-02-22_09h36.26.226,2024_RDpaindiscrimination_maintask,2023.2.3,59.99250095012014,2024-02-22 09h36.43.588421 -0500,
0,0,0,0,9,0,9,0,,,,,,,,,,,,,304.6961666001007,,,,,,,,304.6821656001266,309.67977970000356,309.6797857999336,309.6963325000834,321.6802193999756,1,inactive,45.5,321.6803627999034,324.78223800007254,44.499999999999986,3.083,321.71303130011074,,,,,,,,,,,,,,,,,,,,,,,,,,,,,,,,,,,,,,sub-029,45.5,44,46.3,COM3,2024-02-22_09h36.26.226,2024_RDpaindiscrimination_maintask,2023.2.3,59.99250095012014,2024-02-22 09h36.43.588421 -0500,
0,0,0,0,10,0,10,0,,,,,,,,,,,,,324.79632740002126,,,,,,,,324.78299450012855,329.77994609996676,329.77995370002463,329.79646450001746,341.7804739999119,2,active,44.0,341.7806192000862,344.54919330007397,22.000000000000064,2.749,341.81331670004874,,,,,,,,,,,,,,,,,,,,,,,,,,,,,,,,,,,,,,sub-029,45.5,44,46.3,COM3,2024-02-22_09h36.26.226,2024_RDpaindiscrimination_maintask,2023.2.3,59.99250095012014,2024-02-22 09h36.43.588421 -0500,
0,0,0,0,11,0,11,0,,,,,,,,,,,,,344.5633421000093,,,,,,,,344.54997080005705,349.54685780010186,349.54686350002885,349.563257599948,361.5473637001123,3,active,44.0,361.54751290008426,365.9832061000634,33.50000000000003,4.417,361.5801139001269,,,,,,,,,,,,,,,,,,,,,,,,,,,,,,,,,,,,,,sub-029,45.5,44,46.3,COM3,2024-02-22_09h36.26.226,2024_RDpaindiscrimination_maintask,2023.2.3,59.99250095012014,2024-02-22 09h36.43.588421 -0500,
0,0,0,0,12,0,12,0,,,,,,,,,,,,,365.99691019998863,,,,,,,,365.9840283000376,370.9805199999828,370.98052649991587,370.99692780012265,382.9808322000317,0,inactive,45.5,382.98098140000366,385.6991981000174,44.499999999999915,2.699,383.0137378999498,,,,,,,,,,,,,,,,,,,,,,,,,,,,,,,,,,,,,,sub-029,45.5,44,46.3,COM3,2024-02-22_09h36.26.226,2024_RDpaindiscrimination_maintask,2023.2.3,59.99250095012014,2024-02-22 09h36.43.588421 -0500,
0,0,0,0,13,0,13,0,,,,,,,,,,,,,385.71380020002834,,,,,,,,385.70001909998246,390.6972831999883,390.69728960003704,390.71370270010084,402.697786899982,1,active,44.0,402.69792760000564,405.4338563999627,4.9999999999999964,2.717,402.7306152000092,,,,,,,,,,,,,,,,,,,,,,,,,,,,,,,,,,,,,,sub-029,45.5,44,46.3,COM3,2024-02-22_09h36.26.226,2024_RDpaindiscrimination_maintask,2023.2.3,59.99250095012014,2024-02-22 09h36.43.588421 -0500,
0,0,0,0,14,0,14,0,,,,,,,,,,,,,405.44725540000945,,,,,,,,405.4346924999263,410.43082030001096,410.4308265000582,410.44731259997934,422.4312473000027,2,inactive,45.5,422.4313861001283,426.5161461001262,74.49999999999991,4.066,422.46410880004987,,,,,,,,,,,,,,,,,,,,,,,,,,,,,,,,,,,,,,sub-029,45.5,44,46.3,COM3,2024-02-22_09h36.26.226,2024_RDpaindiscrimination_maintask,2023.2.3,59.99250095012014,2024-02-22 09h36.43.588421 -0500,
0,0,0,0,15,0,15,0,,,,,,,,,,,,,426.53083280008286,,,,,,,,426.516935700085,431.51438660011627,431.51439210004173,431.53080460010096,443.51470050006174,3,inactive,45.5,443.514839499956,446.46613049996085,68.9999999999999,2.932,443.54767720005475,,,,,,,,,,,,,,,,,,,,,,,,,,,,,,,,,,,,,,sub-029,45.5,44,46.3,COM3,2024-02-22_09h36.26.226,2024_RDpaindiscrimination_maintask,2023.2.3,59.99250095012014,2024-02-22 09h36.43.588421 -0500,
0,0,0,0,,,,,0,0,0,0,0,0,0,0,,,,,495.79822849994525,,,,,,492.2321502000559,495.7818714999594,,,,,,0,inactive,45.5,512.7821170999669,517.7347635000478,31.499999999999968,4.934,,446.4666663000826,446.4810874001123,492.23179200012237,495.78216630010866,500.7817738999147,500.78178469999693,500.7982817001175,512.8149957999121,512.7821067001205,,,,,,,,,,,,,,,,,,,,,,,,,,,,,sub-029,45.5,44,46.3,COM3,2024-02-22_09h36.26.226,2024_RDpaindiscrimination_maintask,2023.2.3,59.99250095012014,2024-02-22 09h36.43.588421 -0500,
0,0,0,0,,,,,0,0,0,0,1,0,1,0,,,,,517.748446600046,,,,,,,,,,,,,1,active,45.5,534.7331699999049,537.5182912999298,65.49999999999987,2.766,,,,,517.7355297000613,522.7320985000115,522.7321045999415,522.7484570001252,534.7652952000499,534.7331622999627,,,,,,,,,,,,,,,,,,,,,,,,,,,,,sub-029,45.5,44,46.3,COM3,2024-02-22_09h36.26.226,2024_RDpaindiscrimination_maintask,2023.2.3,59.99250095012014,2024-02-22 09h36.43.588421 -0500,
0,0,0,0,,,,,0,0,0,0,,,,,0,0,0,0,540.7986936001107,,,,,,,,,,,,,2,active,,,,,,,,,,,,,,,,537.5188112000469,540.782291200012,540.7825984000228,545.7822724001016,545.7822795000393,545.7987480000593,553.7821557999123,553.7821557999123,556.7488561000209,556.7822338000406,556.7822338000406,556.7657059000339,3.68,5.12,368,512,8,1.2,0.75,pic-present,1,n,1.2521528999786824,None,,,,,sub-029,45.5,44,46.3,COM3,2024-02-22_09h36.26.226,2024_RDpaindiscrimination_maintask,2023.2.3,59.99250095012014,2024-02-22 09h36.43.588421 -0500,
0,0,0,0,,,,,0,0,0,0,,,,,1,0,1,0,556.7822338000406,,,,,,,,,,,,,3,inactive,,,,,,,,,,,,,,,,,,556.7662897999398,561.7657610999886,561.7657677999232,561.7822080000769,569.7655863000546,569.7655863000546,572.732280400116,572.7656410001218,572.7656410001218,572.7491637000348,3.93,4.87,393,487,8,1.2,0.75,pic-absent,0,m,1.1692560000810772,None,,,,,sub-029,45.5,44,46.3,COM3,2024-02-22_09h36.26.226,2024_RDpaindiscrimination_maintask,2023.2.3,59.99250095012014,2024-02-22 09h36.43.588421 -0500,
0,0,0,0,,,,,0,0,0,0,,,,,2,0,2,0,572.7656410001218,,,,,,,,,,,,,0,active,,,,,,,,,,,,,,,,,,572.7496664000209,577.7492325000931,577.7492394000292,577.7657459001057,585.7491528000683,585.7491528000683,588.7158643999137,588.7491691999603,588.7491691999603,588.7327034999616,4.1,4.7,409,470,8,1.2,0.75,pic-absent,0,m,1.2255089997779578,None,,,,,sub-029,45.5,44,46.3,COM3,2024-02-22_09h36.26.226,2024_RDpaindiscrimination_maintask,2023.2.3,59.99250095012014,2024-02-22 09h36.43.588421 -0500,
0,0,0,0,,,,,0,0,0,0,,,,,3,0,3,0,588.7491691999603,,,,,,,,,,,,,1,active,,,,,,,,,,,,,,,,,,588.7331668001134,593.7327330000699,593.7327413000166,593.7492205000017,601.7326668000314,601.7326668000314,604.6993561999407,604.7327519000974,604.7327519000974,604.7161979000084,4.61,4.19,461,419,8,1.2,0.75,pic-present,1,n,1.2824530999641865,None,,,,,sub-029,45.5,44,46.3,COM3,2024-02-22_09h36.26.226,2024_RDpaindiscrimination_maintask,2023.2.3,59.99250095012014,2024-02-22 09h36.43.588421 -0500,
0,0,0,0,,,,,1,0,1,0,0,0,0,0,,,,,608.0660415999591,,,,,,604.71671529999,608.0497127999552,,,,,,2,active,45.5,625.0499929001089,627.7193303999957,66.49999999999994,2.651,,,,,608.0500256000087,613.0495965001173,613.0496026999317,613.0660391999409,625.0828969001304,625.0499849999323,,,,,,,,,,,,,,,,,,,,,,,,,,,,,sub-029,45.5,44,46.3,COM3,2024-02-22_09h36.26.226,2024_RDpaindiscrimination_maintask,2023.2.3,59.99250095012014,2024-02-22 09h36.43.588421 -0500,
0,0,0,0,,,,,1,0,1,0,1,0,1,0,,,,,627.7328904001042,,,,,,,,,,,,,3,inactive,45.5,644.7168382999953,646.8683219000231,47.49999999999997,2.133,,,,,627.7200585999526,632.7163973001298,632.7164034999441,632.7329633000772,644.7498035000172,644.7168310000561,,,,,,,,,,,,,,,,,,,,,,,,,,,,,sub-029,45.5,44,46.3,COM3,2024-02-22_09h36.26.226,2024_RDpaindiscrimination_maintask,2023.2.3,59.99250095012014,2024-02-22 09h36.43.588421 -0500,
0,0,0,0,,,,,1,0,1,0,,,,,0,0,0,0,650.5331602001097,,,,,,,,,,,,,0,inactive,,,,,,,,,,,,,,,,646.8688876000233,650.5167284000199,650.5170537999365,655.5166764000896,655.5166827999055,655.5331510000397,663.5165599999018,663.5165599999018,666.4832606001291,666.5166104999371,666.5166104999371,666.5001091999002,3.96,4.84,396,484,8,1.2,0.75,pic-absent,0,m,1.3419698998332024,None,,,,,sub-029,45.5,44,46.3,COM3,2024-02-22_09h36.26.226,2024_RDpaindiscrimination_maintask,2023.2.3,59.99250095012014,2024-02-22 09h36.43.588421 -0500,
0,0,0,0,,,,,1,0,1,0,,,,,1,0,1,0,666.5166104999371,,,,,,,,,,,,,1,active,,,,,,,,,,,,,,,,,,666.5006518000737,671.5002488000318,671.5002548000775,671.5166803000029,679.5000511999242,679.5000511999242,682.4667875000741,682.5000940000173,682.5000940000173,682.4836272001266,3.82,4.98,382,498,8,1.2,0.75,pic-absent,0,m,1.3062503000255674,None,,,,,sub-029,45.5,44,46.3,COM3,2024-02-22_09h36.26.226,2024_RDpaindiscrimination_maintask,2023.2.3,59.99250095012014,2024-02-22 09h36.43.588421 -0500,
0,0,0,0,,,,,1,0,1,0,,,,,2,0,2,0,682.5000940000173,,,,,,,,,,,,,2,inactive,,,,,,,,,,,,,,,,,,682.4841024000198,687.4837333001196,687.4837398999371,687.5001616000663,695.483589899959,695.483589899959,698.4502518000081,698.4835965000093,698.4835965000093,698.4671467998996,4.3,4.5,430,450,8,1.2,0.75,pic-present,1,n,0.894899999955669,None,,,,,sub-029,45.5,44,46.3,COM3,2024-02-22_09h36.26.226,2024_RDpaindiscrimination_maintask,2023.2.3,59.99250095012014,2024-02-22 09h36.43.588421 -0500,
0,0,0,0,,,,,1,0,1,0,,,,,3,0,3,0,698.4835965000093,,,,,,,,,,,,,3,inactive,,,,,,,,,,,,,,,,,,698.4676075999159,703.4671368000563,703.4671450001188,703.4836506999563,711.4670410999097,711.4670410999097,714.4338155000005,714.4671567999758,714.4671567999758,714.450659400085,4.35,4.45,434,445,8,1.2,0.75,pic-absent,0,m,1.6075410000048578,None,,,,,sub-029,45.5,44,46.3,COM3,2024-02-22_09h36.26.226,2024_RDpaindiscrimination_maintask,2023.2.3,59.99250095012014,2024-02-22 09h36.43.588421 -0500,
0,0,0,0,,,,,2,0,2,0,0,0,0,0,,,,,717.9338374999352,,,,,,714.4511448000558,717.9174387000967,,,,,,0,active,45.5,734.9179833000526,738.1868662000634,53.00000000000003,3.25,,,,,717.9177627000026,722.917432700051,722.9174401999917,722.9338956000283,734.9507095001172,734.9179754001088,,,,,,,,,,,,,,,,,,,,,,,,,,,,,sub-029,45.5,44,46.3,COM3,2024-02-22_09h36.26.226,2024_RDpaindiscrimination_maintask,2023.2.3,59.99250095012014,2024-02-22 09h36.43.588421 -0500,
0,0,0,0,,,,,2,0,2,0,1,0,1,0,,,,,738.2006564000621,,,,,,,,,,,,,1,inactive,45.5,755.1846773000434,758.7203116000164,37.49999999999994,3.517,,,,,738.1876068999991,743.1842664000578,743.1842724001035,743.2007635000627,755.2175602000207,755.1846700001042,,,,,,,,,,,,,,,,,,,,,,,,,,,,,sub-029,45.5,44,46.3,COM3,2024-02-22_09h36.26.226,2024_RDpaindiscrimination_maintask,2023.2.3,59.99250095012014,2024-02-22 09h36.43.588421 -0500,
0,0,0,0,,,,,2,0,2,0,,,,,0,0,0,0,761.6176986000501,,,,,,,,,,,,,2,active,,,,,,,,,,,,,,,,758.720892699901,761.6012633999344,761.6015703999437,766.601190000074,766.6011975000147,766.6176293001045,774.6011268000584,774.6011268000584,777.5678141000681,777.6011844999157,777.6011844999157,777.5847549000755,3.87,4.93,387,493,8,1.2,0.75,pic-absent,0,m,1.1701191999018192,None,,,,,sub-029,45.5,44,46.3,COM3,2024-02-22_09h36.26.226,2024_RDpaindiscrimination_maintask,2023.2.3,59.99250095012014,2024-02-22 09h36.43.588421 -0500,
0,0,0,0,,,,,2,0,2,0,,,,,1,0,1,0,777.6011844999157,,,,,,,,,,,,,3,inactive,,,,,,,,,,,,,,,,,,777.5853224999737,782.5847052999306,782.5847130001057,782.6012122000102,790.5845093999524,790.5845093999524,793.5513357999735,793.5846583000384,793.5846583000384,793.5682200998999,4.53,4.27,453,426,8,1.2,0.75,pic-present,1,n,0.9868165999650955,None,,,,,sub-029,45.5,44,46.3,COM3,2024-02-22_09h36.26.226,2024_RDpaindiscrimination_maintask,2023.2.3,59.99250095012014,2024-02-22 09h36.43.588421 -0500,
0,0,0,0,,,,,2,0,2,0,,,,,2,0,2,0,793.5846583000384,,,,,,,,,,,,,0,active,,,,,,,,,,,,,,,,,,793.5687100999057,798.5681817000732,798.5681884000078,798.5847136999946,806.5681308999192,806.5681308999192,809.534784700023,809.5681626999285,809.5681626999285,809.5516087999567,3.85,4.95,385,495,8,1.2,0.75,pic-present,1,n,0.9994911998510361,None,,,,,sub-029,45.5,44,46.3,COM3,2024-02-22_09h36.26.226,2024_RDpaindiscrimination_maintask,2023.2.3,59.99250095012014,2024-02-22 09h36.43.588421 -0500,
0,0,0,0,,,,,2,0,2,0,,,,,3,0,3,0,809.5681626999285,,,,,,,,,,,,,1,active,,,,,,,,,,,,,,,,,,809.5521470999811,814.5516967999283,814.5517035000958,814.5682149000932,822.5516230000649,822.5516230000649,825.5182471000589,825.5516661000438,825.5516661000438,825.5351472999901,4.73,4.07,473,407,8,1.2,0.75,pic-absent,0,m,1.291703199967742,None,,,,,sub-029,45.5,44,46.3,COM3,2024-02-22_09h36.26.226,2024_RDpaindiscrimination_maintask,2023.2.3,59.99250095012014,2024-02-22 09h36.43.588421 -0500,
0,0,0,0,,,,,3,0,3,0,0,0,0,0,,,,,832.2683234999422,,,,,,825.535625099903,832.2521045999601,,,,,,2,inactive,45.5,849.2520858999342,851.7882065000013,50.0,2.517,,,,,832.2523962999694,837.251951900078,837.251958000008,837.268306999933,849.2850917000324,849.2520779999904,,,,,,,,,,,,,,,,,,,,,,,,,,,,,sub-029,45.5,44,46.3,COM3,2024-02-22_09h36.26.226,2024_RDpaindiscrimination_maintask,2023.2.3,59.99250095012014,2024-02-22 09h36.43.588421 -0500,
0,0,0,0,,,,,3,0,3,0,1,0,1,0,,,,,851.8019365000073,,,,,,,,,,,,,3,active,45.5,868.7857784999069,872.4202390999999,68.99999999999983,3.615,,,,,851.7889286000282,856.7854391001165,856.785445400048,856.8019306999631,868.818726999918,868.7857711000834,,,,,,,,,,,,,,,,,,,,,,,,,,,,,sub-029,45.5,44,46.3,COM3,2024-02-22_09h36.26.226,2024_RDpaindiscrimination_maintask,2023.2.3,59.99250095012014,2024-02-22 09h36.43.588421 -0500,
0,0,0,0,,,,,3,0,3,0,,,,,0,0,0,0,875.2188162000384,,,,,,,,,,,,,0,inactive,,,,,,,,,,,,,,,,872.4207391999662,875.2024181000888,875.202723900089,880.2024089000188,880.2024149000645,880.2188651999459,888.2022758999374,888.2022758999374,891.1689106000122,891.2022609999403,891.2022609999403,891.1857616000343,3.43,5.37,343,537,8,1.2,0.75,pic-present,1,n,0.8595137000083923,None,,,,,sub-029,45.5,44,46.3,COM3,2024-02-22_09h36.26.226,2024_RDpaindiscrimination_maintask,2023.2.3,59.99250095012014,2024-02-22 09h36.43.588421 -0500,
0,0,0,0,,,,,3,0,3,0,,,,,1,0,1,0,891.2022609999403,,,,,,,,,,,,,1,active,,,,,,,,,,,,,,,,,,891.1863182000816,896.1858137999661,896.1858208000194,896.2022730000317,904.1857292999048,904.1857292999048,907.1525298999622,907.1857652999461,907.1857652999461,907.1692749999929,4.12,4.68,412,468,8,1.2,0.75,pic-present,1,n,1.0606591999530792,None,,,,,sub-029,45.5,44,46.3,COM3,2024-02-22_09h36.26.226,2024_RDpaindiscrimination_maintask,2023.2.3,59.99250095012014,2024-02-22 09h36.43.588421 -0500,
0,0,0,0,,,,,3,0,3,0,,,,,2,0,2,0,907.1857652999461,,,,,,,,,,,,,2,inactive,,,,,,,,,,,,,,,,,,907.1697621999774,912.1693001000676,912.1693068000022,912.185835900018,920.1692242000718,920.1692242000718,923.1359286999796,923.1692470000125,923.1692470000125,923.1527847000398,4.65,4.15,465,415,8,1.2,0.75,pic-absent,1,n,1.2566271000541747,None,,,,,sub-029,45.5,44,46.3,COM3,2024-02-22_09h36.26.226,2024_RDpaindiscrimination_maintask,2023.2.3,59.99250095012014,2024-02-22 09h36.43.588421 -0500,
0,0,0,0,,,,,3,0,3,0,,,,,3,0,3,0,923.1692470000125,,,,,,,,,,,,,3,inactive,,,,,,,,,,,,,,,,,,923.1532789000776,928.1527992000338,928.1528060000855,928.169328100048,936.1528157999273,936.1528157999273,939.1195058999583,939.1526889000088,939.1526889000088,939.1363091999665,3.58,5.22,358,522,8,1.2,0.75,pic-present,1,n,1.0809385001193732,None,,,,,sub-029,45.5,44,46.3,COM3,2024-02-22_09h36.26.226,2024_RDpaindiscrimination_maintask,2023.2.3,59.99250095012014,2024-02-22 09h36.43.588421 -0500,
1,0,1,0,0,0,0,0,,,,,,,,,,,,,1008.7035133999307,,,,1003.5705780000426,1005.3704085000791,1005.3704160000198,1008.6871356999036,1008.6874319000635,1013.6870772000402,1013.6870832999703,1013.7035308999475,1025.6875334000215,0,inactive,45.5,1025.687745800009,1028.1555629000068,32.49999999999996,2.446,1025.720263299998,,,,,,,,,,,,,,,,,,,,,,,,,,,,,,,,,,939.1367880001199,1003.570447999984,,,sub-029,45.5,44,46.3,COM3,2024-02-22_09h36.26.226,2024_RDpaindiscrimination_maintask,2023.2.3,59.99250095012014,2024-02-22 09h36.43.588421 -0500,
1,0,1,0,1,0,1,0,,,,,,,,,,,,,1028.1703538999427,,,,,,,,1028.1564104999416,1033.1539108001161,1033.1539169999305,1033.1704480999615,1045.154397800099,1,active,44.0,1045.1545486000832,1047.972965999972,17.500000000000032,2.799,1045.187256500125,,,,,,,,,,,,,,,,,,,,,,,,,,,,,,,,,,,,,,sub-029,45.5,44,46.3,COM3,2024-02-22_09h36.26.226,2024_RDpaindiscrimination_maintask,2023.2.3,59.99250095012014,2024-02-22 09h36.43.588421 -0500,
1,0,1,0,2,0,2,0,,,,,,,,,,,,,1047.9872852000408,,,,,,,,1047.9738243001048,1052.9707925999537,1052.970799200004,1052.9872473001014,1064.9712940999307,2,active,44.0,1064.971440100111,1068.2401833001059,32.5000000000001,3.25,1065.004071699921,,,,,,,,,,,,,,,,,,,,,,,,,,,,,,,,,,,,,,sub-029,45.5,44,46.3,COM3,2024-02-22_09h36.26.226,2024_RDpaindiscrimination_maintask,2023.2.3,59.99250095012014,2024-02-22 09h36.43.588421 -0500,
1,0,1,0,3,0,3,0,,,,,,,,,,,,,1068.2540990000125,,,,,,,,1068.2409719999414,1073.2377786999568,1073.2377844001167,1073.2541535999626,1085.2381416000426,3,inactive,45.5,1085.238285999978,1088.1073855999857,72.99999999999996,2.85,1085.2710067001171,,,,,,,,,,,,,,,,,,,,,,,,,,,,,,,,,,,,,,sub-029,45.5,44,46.3,COM3,2024-02-22_09h36.26.226,2024_RDpaindiscrimination_maintask,2023.2.3,59.99250095012014,2024-02-22 09h36.43.588421 -0500,
1,0,1,0,4,0,4,0,,,,,,,,,,,,,1088.121012999909,,,,,,,,1088.1081272000447,1093.1045323999133,1093.104538399959,1093.1210296000354,1105.1049593000207,0,active,44.0,1105.105101800058,1108.7224675999023,6.000000000000165,3.597,1105.1378240999766,,,,,,,,,,,,,,,,,,,,,,,,,,,,,,,,,,,,,,sub-029,45.5,44,46.3,COM3,2024-02-22_09h36.26.226,2024_RDpaindiscrimination_maintask,2023.2.3,59.99250095012014,2024-02-22 09h36.43.588421 -0500,
1,0,1,0,5,0,5,0,,,,,,,,,,,,,1108.737924200017,,,,,,,,1108.7230157000013,1113.7214653999545,1113.7214716000017,1113.7379123999272,1125.7218637999613,1,inactive,45.5,1125.7220123000443,1129.474377000006,37.000000000000014,3.732,1125.7546948001254,,,,,,,,,,,,,,,,,,,,,,,,,,,,,,,,,,,,,,sub-029,45.5,44,46.3,COM3,2024-02-22_09h36.26.226,2024_RDpaindiscrimination_maintask,2023.2.3,59.99250095012014,2024-02-22 09h36.43.588421 -0500,
1,0,1,0,6,0,6,0,,,,,,,,,,,,,1129.488144800067,,,,,,,,1129.4751454999205,1134.4717486000154,1134.4717548000626,1134.4882018999197,1146.4721236999612,2,inactive,45.5,1146.4722730000503,1149.558275199961,59.00000000000007,3.066,1146.5050145999994,,,,,,,,,,,,,,,,,,,,,,,,,,,,,,,,,,,,,,sub-029,45.5,44,46.3,COM3,2024-02-22_09h36.26.226,2024_RDpaindiscrimination_maintask,2023.2.3,59.99250095012014,2024-02-22 09h36.43.588421 -0500,
1,0,1,0,7,0,7,0,,,,,,,,,,,,,1149.5716794000473,,,,,,,,1149.5590468000155,1154.5551509999204,1154.555156599963,1154.5716248000972,1166.5555932999123,3,active,44.0,1166.555737100076,1169.707446000073,22.99999999999999,3.133,1166.5884134001099,,,,,,,,,,,,,,,,,,,,,,,,,,,,,,,,,,,,,,sub-029,45.5,44,46.3,COM3,2024-02-22_09h36.26.226,2024_RDpaindiscrimination_maintask,2023.2.3,59.99250095012014,2024-02-22 09h36.43.588421 -0500,
1,0,1,0,8,0,8,0,,,,,,,,,,,,,1169.7217993000522,,,,,,,,1169.7082088000607,1174.7053461999167,1174.705352500081,1174.7218474000692,1186.7058778000064,0,active,44.0,1186.706023500068,1191.2073435999919,9.500000000000204,4.482,1186.73872880009,,,,,,,,,,,,,,,,,,,,,,,,,,,,,,,,,,,,,,sub-029,45.5,44,46.3,COM3,2024-02-22_09h36.26.226,2024_RDpaindiscrimination_maintask,2023.2.3,59.99250095012014,2024-02-22 09h36.43.588421 -0500,
1,0,1,0,9,0,9,0,,,,,,,,,,,,,1191.2220531001221,,,,,,,,1191.2081049000844,1196.2055790999439,1196.2055860001128,1196.2220642000902,1208.2061127000488,1,inactive,45.5,1208.206260100007,1211.9744764000643,27.50000000000015,3.75,1208.238962000003,,,,,,,,,,,,,,,,,,,,,,,,,,,,,,,,,,,,,,sub-029,45.5,44,46.3,COM3,2024-02-22_09h36.26.226,2024_RDpaindiscrimination_maintask,2023.2.3,59.99250095012014,2024-02-22 09h36.43.588421 -0500,
1,0,1,0,10,0,10,0,,,,,,,,,,,,,1211.9889402999543,,,,,,,,1211.9752285000868,1216.972590799909,1216.9725961999502,1216.989043199923,1228.9729556001257,2,inactive,45.5,1228.9731000999454,1232.2419432001188,58.49999999999987,3.25,1229.0058653999586,,,,,,,,,,,,,,,,,,,,,,,,,,,,,,,,,,,,,,sub-029,45.5,44,46.3,COM3,2024-02-22_09h36.26.226,2024_RDpaindiscrimination_maintask,2023.2.3,59.99250095012014,2024-02-22 09h36.43.588421 -0500,
1,0,1,0,11,0,11,0,,,,,,,,,,,,,1232.2559024000075,,,,,,,,1232.2427441999316,1237.2395045999438,1237.2395113001112,1237.2559158999939,1249.2398552999366,3,active,44.0,1249.2400064000394,1252.2744595000986,14.499999999999995,3.015,1249.2727475999855,,,,,,,,,,,,,,,,,,,,,,,,,,,,,,,,,,,,,,sub-029,45.5,44,46.3,COM3,2024-02-22_09h36.26.226,2024_RDpaindiscrimination_maintask,2023.2.3,59.99250095012014,2024-02-22 09h36.43.588421 -0500,
1,0,1,0,12,0,12,0,,,,,,,,,,,,,1252.2894325999077,,,,,,,,1252.2752574000042,1257.2729865999427,1257.272993199993,1257.289472799981,1269.2733668000437,0,inactive,45.5,1269.273508500075,1273.4418792000506,15.500000000000174,4.149,1269.3062708000652,,,,,,,,,,,,,,,,,,,,,,,,,,,,,,,,,,,,,,sub-029,45.5,44,46.3,COM3,2024-02-22_09h36.26.226,2024_RDpaindiscrimination_maintask,2023.2.3,59.99250095012014,2024-02-22 09h36.43.588421 -0500,
1,0,1,0,13,0,13,0,,,,,,,,,,,,,1273.456439099973,,,,,,,,1273.4426726999227,1278.439904900035,1278.439910999965,1278.4563732000533,1290.440304900054,1,active,44.0,1290.440450400114,1293.4932140000165,1.0000000000001295,3.034,1290.47317020013,,,,,,,,,,,,,,,,,,,,,,,,,,,,,,,,,,,,,,sub-029,45.5,44,46.3,COM3,2024-02-22_09h36.26.226,2024_RDpaindiscrimination_maintask,2023.2.3,59.99250095012014,2024-02-22 09h36.43.588421 -0500,
1,0,1,0,14,0,14,0,,,,,,,,,,,,,1293.5065639000386,,,,,,,,1293.4940120999236,1298.4901264000218,1298.490135600092,1298.5065484999213,1310.4905630000867,2,active,44.0,1310.4907029999886,1313.1090714000165,23.499999999999996,2.599,1310.5233418000862,,,,,,,,,,,,,,,,,,,,,,,,,,,,,,,,,,,,,,sub-029,45.5,44,46.3,COM3,2024-02-22_09h36.26.226,2024_RDpaindiscrimination_maintask,2023.2.3,59.99250095012014,2024-02-22 09h36.43.588421 -0500,
1,0,1,0,15,0,15,0,,,,,,,,,,,,,1313.1232930000406,,,,,,,,1313.1102185999043,1318.1068396999035,1318.106846000068,1318.1233022001106,1330.1073791000526,3,inactive,45.5,1330.1075244999956,1333.9086418000516,70.4999999999999,3.782,1330.1402592000086,,,,,,,,,,,,,,,,,,,,,,,,,,,,,,,,,,,,,,sub-029,45.5,44,46.3,COM3,2024-02-22_09h36.26.226,2024_RDpaindiscrimination_maintask,2023.2.3,59.99250095012014,2024-02-22 09h36.43.588421 -0500,
1,0,1,0,,,,,0,0,0,0,0,0,0,0,,,,,1354.5570479999296,,,,,,1353.240995900007,1354.540676600067,,,,,,0,active,45.5,1371.540895299986,1374.2431501999963,73.49999999999989,2.684,,1333.9093045999762,1333.9235734001268,1353.2406685999595,1354.540963999927,1359.5405987000559,1359.5406055001076,1359.5570998000912,1371.5739138000645,1371.5408870999236,,,,,,,,,,,,,,,,,,,,,,,,,,,,,sub-029,45.5,44,46.3,COM3,2024-02-22_09h36.26.226,2024_RDpaindiscrimination_maintask,2023.2.3,59.99250095012014,2024-02-22 09h36.43.588421 -0500,
1,0,1,0,,,,,0,0,0,0,1,0,1,0,,,,,1374.2572703000624,,,,,,,,,,,,,1,inactive,45.5,1391.2412348999642,1394.093301499961,58.00000000000008,2.833,,,,,1374.243923699949,1379.240793199977,1379.2408010999206,1379.2573337000795,1391.2740941001102,1391.241227200022,,,,,,,,,,,,,,,,,,,,,,,,,,,,,sub-029,45.5,44,46.3,COM3,2024-02-22_09h36.26.226,2024_RDpaindiscrimination_maintask,2023.2.3,59.99250095012014,2024-02-22 09h36.43.588421 -0500,
1,0,1,0,,,,,0,0,0,0,,,,,0,0,0,0,1396.7574893001001,,,,,,,,,,,,,2,active,,,,,,,,,,,,,,,,1394.0938093999866,1396.7411078999285,1396.741434799973,1401.7410329999402,1401.7410395001061,1401.7575346000958,1409.740954699926,1409.740954699926,1412.7076791999862,1412.7410303999204,1412.7410303999204,1412.7245406999718,3.26,5.54,326,554,8,1.2,0.75,pic-present,1,n,0.8845061999745667,None,,,,,sub-029,45.5,44,46.3,COM3,2024-02-22_09h36.26.226,2024_RDpaindiscrimination_maintask,2023.2.3,59.99250095012014,2024-02-22 09h36.43.588421 -0500,
1,0,1,0,,,,,0,0,0,0,,,,,1,0,1,0,1412.7410303999204,,,,,,,,,,,,,3,inactive,,,,,,,,,,,,,,,,,,1412.725094600115,1417.7245615001302,1417.724569800077,1417.741062300047,1425.724569000071,1425.724569000071,1428.691308700014,1428.7246056001168,1428.7246056001168,1428.7081232999917,4.27,4.53,426,453,8,1.2,0.75,pic-absent,0,m,1.3650987998116761,None,,,,,sub-029,45.5,44,46.3,COM3,2024-02-22_09h36.26.226,2024_RDpaindiscrimination_maintask,2023.2.3,59.99250095012014,2024-02-22 09h36.43.588421 -0500,
1,0,1,0,,,,,0,0,0,0,,,,,2,0,2,0,1428.7246056001168,,,,,,,,,,,,,0,inactive,,,,,,,,,,,,,,,,,,1428.7086114000995,1433.7080568000674,1433.7080638001207,1433.724566699937,1441.7081059999764,1441.7081059999764,1444.6746724999975,1444.7080806999002,1444.7080806999002,1444.69158470002,4.13,4.67,413,467,8,1.2,0.75,pic-absent,0,m,1.3727960002142936,None,,,,,sub-029,45.5,44,46.3,COM3,2024-02-22_09h36.26.226,2024_RDpaindiscrimination_maintask,2023.2.3,59.99250095012014,2024-02-22 09h36.43.588421 -0500,
1,0,1,0,,,,,0,0,0,0,,,,,3,0,3,0,1444.7080806999002,,,,,,,,,,,,,1,active,,,,,,,,,,,,,,,,,,1444.692062899936,1449.6916237000842,1449.6916308999062,1449.7080735999625,1457.691591199953,1457.691591199953,1460.6582710999064,1460.6916050999425,1460.6916050999425,1460.6751481001265,4.52,4.28,451,428,8,1.2,0.75,pic-present,1,n,1.0061908999923617,None,,,,,sub-029,45.5,44,46.3,COM3,2024-02-22_09h36.26.226,2024_RDpaindiscrimination_maintask,2023.2.3,59.99250095012014,2024-02-22 09h36.43.588421 -0500,
1,0,1,0,,,,,1,0,1,0,0,0,0,0,,,,,1463.3415385000408,,,,,,1460.6756283000577,1463.3251163999084,,,,,,2,inactive,45.5,1480.3255282000173,1482.7428504999261,79.49999999999993,2.399,,,,,1463.3254084999207,1468.3250851000194,1468.3250917000696,1468.341637100093,1480.3583547000308,1480.325519700069,,,,,,,,,,,,,,,,,,,,,,,,,,,,,sub-029,45.5,44,46.3,COM3,2024-02-22_09h36.26.226,2024_RDpaindiscrimination_maintask,2023.2.3,59.99250095012014,2024-02-22 09h36.43.588421 -0500,
1,0,1,0,,,,,1,0,1,0,1,0,1,0,,,,,1482.7584259998985,,,,,,,,,,,,,3,active,45.5,1499.7422323999926,1502.5446017000359,71.49999999999989,2.783,,,,,1482.743606599979,1487.7419165999163,1487.7419229000807,1487.7584359999746,1499.7752255001105,1499.7422231000382,,,,,,,,,,,,,,,,,,,,,,,,,,,,,sub-029,45.5,44,46.3,COM3,2024-02-22_09h36.26.226,2024_RDpaindiscrimination_maintask,2023.2.3,59.99250095012014,2024-02-22 09h36.43.588421 -0500,
1,0,1,0,,,,,1,0,1,0,,,,,0,0,0,0,1505.0252893001307,,,,,,,,,,,,,0,inactive,,,,,,,,,,,,,,,,1502.5451176001225,1505.0089891001116,1505.0092885999475,1510.008912499994,1510.0089191999286,1510.0253711999394,1518.0088210001122,1518.0088210001122,1520.97544690012,1521.008777400013,1521.008777400013,1520.9922903999686,4.12,4.68,412,468,8,1.2,0.75,pic-absent,0,m,0.848045099992305,None,,,,,sub-029,45.5,44,46.3,COM3,2024-02-22_09h36.26.226,2024_RDpaindiscrimination_maintask,2023.2.3,59.99250095012014,2024-02-22 09h36.43.588421 -0500,
1,0,1,0,,,,,1,0,1,0,,,,,1,0,1,0,1521.008777400013,,,,,,,,,,,,,1,active,,,,,,,,,,,,,,,,,,1520.9928347000387,1525.9923270998988,1525.9923346999567,1526.0088355001062,1533.992240899941,1533.992240899941,1536.9589440999553,1536.9922720999457,1536.9922720999457,1536.9758427999914,4.28,4.52,428,451,8,1.2,0.75,pic-present,1,n,0.7180178000126034,None,,,,,sub-029,45.5,44,46.3,COM3,2024-02-22_09h36.26.226,2024_RDpaindiscrimination_maintask,2023.2.3,59.99250095012014,2024-02-22 09h36.43.588421 -0500,
1,0,1,0,,,,,1,0,1,0,,,,,2,0,2,0,1536.9922720999457,,,,,,,,,,,,,2,active,,,,,,,,,,,,,,,,,,1536.9763185000047,1541.975827000104,1541.9758339999244,1541.9923573001288,1549.9757783999667,1549.9757783999667,1552.9424833999947,1552.9758657000493,1552.9758657000493,1552.9593762999866,3.76,5.04,376,504,8,1.2,0.75,pic-present,1,n,0.6291137998923659,None,,,,,sub-029,45.5,44,46.3,COM3,2024-02-22_09h36.26.226,2024_RDpaindiscrimination_maintask,2023.2.3,59.99250095012014,2024-02-22 09h36.43.588421 -0500,
1,0,1,0,,,,,1,0,1,0,,,,,3,0,3,0,1552.9758657000493,,,,,,,,,,,,,3,inactive,,,,,,,,,,,,,,,,,,1552.9598769999575,1557.9594322999474,1557.9594394001178,1557.9758214999456,1565.9593585999683,1565.9593585999683,1568.92598680011,1568.9593128999695,1568.9593128999695,1568.9428761999588,3.78,5.02,378,501,8,1.2,0.75,pic-absent,1,n,2.470097300130874,None,,,,,sub-029,45.5,44,46.3,COM3,2024-02-22_09h36.26.226,2024_RDpaindiscrimination_maintask,2023.2.3,59.99250095012014,2024-02-22 09h36.43.588421 -0500,
1,0,1,0,,,,,2,0,2,0,0,0,0,0,,,,,1571.9093466999475,,,,,,1568.9433883999009,1571.8929258000571,,,,,,0,inactive,45.5,1588.8933669999242,1593.1287529000547,2.5000000000002003,4.216,,,,,1571.8932441999204,1576.8928950000554,1576.892901299987,1576.9094734000973,1588.9261543001048,1588.8933590999804,,,,,,,,,,,,,,,,,,,,,,,,,,,,,sub-029,45.5,44,46.3,COM3,2024-02-22_09h36.26.226,2024_RDpaindiscrimination_maintask,2023.2.3,59.99250095012014,2024-02-22 09h36.43.588421 -0500,
1,0,1,0,,,,,2,0,2,0,1,0,1,0,,,,,1593.14294099994,,,,,,,,,,,,,1,active,45.5,1610.1267770999111,1615.1630987001117,46.00000000000012,5.017,,,,,1593.129712200025,1598.1264351999853,1598.126441600034,1598.1429709999356,1610.1597845999058,1610.1267699000891,,,,,,,,,,,,,,,,,,,,,,,,,,,,,sub-029,45.5,44,46.3,COM3,2024-02-22_09h36.26.226,2024_RDpaindiscrimination_maintask,2023.2.3,59.99250095012014,2024-02-22 09h36.43.588421 -0500,
1,0,1,0,,,,,2,0,2,0,,,,,0,0,0,0,1617.2097875999752,,,,,,,,,,,,,2,inactive,,,,,,,,,,,,,,,,1615.163617900107,1617.1945962000173,1617.1949324000161,1622.1933504000772,1622.193356800126,1622.2098650999833,1630.2099103000946,1630.2099103000946,1633.1599532000255,1633.2099478999153,1633.2099478999153,1633.1934539999347,4.29,4.51,429,451,8,1.2,0.75,pic-present,1,n,0.49557760008610785,None,,,,,sub-029,45.5,44,46.3,COM3,2024-02-22_09h36.26.226,2024_RDpaindiscrimination_maintask,2023.2.3,59.99250095012014,2024-02-22 09h36.43.588421 -0500,
1,0,1,0,,,,,2,0,2,0,,,,,1,0,1,0,1633.2099478999153,,,,,,,,,,,,,3,active,,,,,,,,,,,,,,,,,,1633.194053699961,1638.193533899961,1638.1935409000143,1638.2099989000708,1646.19357090001,1646.19357090001,1649.160222100094,1649.1935149000492,1649.1935149000492,1649.1769956999924,4.58,4.22,458,422,8,1.2,0.75,pic-absent,0,m,1.019808999961242,None,,,,,sub-029,45.5,44,46.3,COM3,2024-02-22_09h36.26.226,2024_RDpaindiscrimination_maintask,2023.2.3,59.99250095012014,2024-02-22 09h36.43.588421 -0500,
1,0,1,0,,,,,2,0,2,0,,,,,2,0,2,0,1649.1935149000492,,,,,,,,,,,,,0,inactive,,,,,,,,,,,,,,,,,,1649.177502100123,1654.1771295999642,1654.177136699902,1654.1935280999169,1662.1770232999697,1662.1770232999697,1665.1436695000157,1665.1770536999684,1665.1770536999684,1665.1605611001141,3.37,5.43,337,543,8,1.2,0.75,pic-present,1,n,1.0320063000544906,None,,,,,sub-029,45.5,44,46.3,COM3,2024-02-22_09h36.26.226,2024_RDpaindiscrimination_maintask,2023.2.3,59.99250095012014,2024-02-22 09h36.43.588421 -0500,
1,0,1,0,,,,,2,0,2,0,,,,,3,0,3,0,1665.1770536999684,,,,,,,,,,,,,1,active,,,,,,,,,,,,,,,,,,1665.1610453000758,1670.160603000084,1670.1606101000216,1670.1770750998985,1678.1605670000426,1678.1605670000426,1681.1271569000091,1681.1605310000014,1681.1605310000014,1681.1439843000844,4.38,4.42,438,442,8,1.2,0.75,pic-absent,0,m,0.9920449999626726,None,,,,,sub-029,45.5,44,46.3,COM3,2024-02-22_09h36.26.226,2024_RDpaindiscrimination_maintask,2023.2.3,59.99250095012014,2024-02-22 09h36.43.588421 -0500,
1,0,1,0,,,,,3,0,3,0,0,0,0,0,,,,,1684.3771786999423,,,,,,1681.1444637000095,1684.3608822999522,,,,,,2,active,45.5,1701.3613885999657,1705.5304412001278,56.500000000000085,4.15,,,,,1684.3612148000393,1689.3607316999696,1689.3607379000168,1689.377286199946,1701.3940252000466,1701.361379900016,,,,,,,,,,,,,,,,,,,,,,,,,,,,,sub-029,45.5,44,46.3,COM3,2024-02-22_09h36.26.226,2024_RDpaindiscrimination_maintask,2023.2.3,59.99250095012014,2024-02-22 09h36.43.588421 -0500,
1,0,1,0,,,,,3,0,3,0,1,0,1,0,,,,,1705.5440637001302,,,,,,,,,,,,,3,inactive,45.5,1722.5281243000645,1725.0140965001192,62.49999999999996,2.467,,,,,1705.5312391000334,1710.5276156000327,1710.5276222999673,1710.5441229999997,1722.5610007001087,1722.5281168001238,,,,,,,,,,,,,,,,,,,,,,,,,,,,,sub-029,45.5,44,46.3,COM3,2024-02-22_09h36.26.226,2024_RDpaindiscrimination_maintask,2023.2.3,59.99250095012014,2024-02-22 09h36.43.588421 -0500,
1,0,1,0,,,,,3,0,3,0,,,,,0,0,0,0,1727.6609577999916,,,,,,,,,,,,,0,active,,,,,,,,,,,,,,,,1725.0146824000403,1727.6445893000346,1727.644916200079,1732.6444842000492,1732.6444904999807,1732.6609849999659,1740.6444709999487,1740.6444709999487,1743.61109209992,1743.6444123999681,1743.6444123999681,1743.6279446999542,3.82,4.98,382,498,8,1.2,0.75,pic-absent,0,m,0.5759302000515163,None,,,,,sub-029,45.5,44,46.3,COM3,2024-02-22_09h36.26.226,2024_RDpaindiscrimination_maintask,2023.2.3,59.99250095012014,2024-02-22 09h36.43.588421 -0500,
1,0,1,0,,,,,3,0,3,0,,,,,1,0,1,0,1743.6444123999681,,,,,,,,,,,,,1,inactive,,,,,,,,,,,,,,,,,,1743.6285006001126,1748.6280674000736,1748.6280749998987,1748.6445786999539,1756.627931999974,1756.627931999974,1759.5945973999333,1759.6279345001094,1759.6279345001094,1759.6114419000223,4.38,4.42,438,442,8,1.2,0.75,pic-present,1,n,0.6332312999293208,None,,,,,sub-029,45.5,44,46.3,COM3,2024-02-22_09h36.26.226,2024_RDpaindiscrimination_maintask,2023.2.3,59.99250095012014,2024-02-22 09h36.43.588421 -0500,
1,0,1,0,,,,,3,0,3,0,,,,,2,0,2,0,1759.6279345001094,,,,,,,,,,,,,2,active,,,,,,,,,,,,,,,,,,1759.6119258999825,1764.6114546000026,1764.6114612999372,1764.6279980000108,1772.6115113999695,1772.6115113999695,1775.5780927001033,1775.6114324999508,1775.6114324999508,1775.594997700071,4.19,4.61,419,461,8,1.2,0.75,pic-absent,0,m,1.4414256000891328,None,,,,,sub-029,45.5,44,46.3,COM3,2024-02-22_09h36.26.226,2024_RDpaindiscrimination_maintask,2023.2.3,59.99250095012014,2024-02-22 09h36.43.588421 -0500,
1,0,1,0,,,,,3,0,3,0,,,,,3,0,3,0,1775.6114324999508,,,,,,,,,,,,,3,inactive,,,,,,,,,,,,,,,,,,1775.5955062999856,1780.5949804000556,1780.5949876001105,1780.6114789999556,1788.5948934000917,1788.5948934000917,1791.5616218999494,1791.5949309999123,1791.5949309999123,1791.578409299953,4.05,4.75,405,475,8,1.2,0.75,pic-present,1,n,0.6023492000531405,None,,,,,sub-029,45.5,44,46.3,COM3,2024-02-22_09h36.26.226,2024_RDpaindiscrimination_maintask,2023.2.3,59.99250095012014,2024-02-22 09h36.43.588421 -0500,
,,,,,,,,,,,,,,,,,,,,,,,,,,,,,,,,,,,,,,,,,,,,,,,,,,,,,,,,,,,,,,,,,,,,,,,,,,1791.5788760001305,1793.4286124999635,1793.4286350000184,1803.4286003001034,,,,,,,,,,,
