trials.thisRepN,trials.thisTrialN,trials.thisN,trials.thisIndex,loop_test.thisRepN,loop_test.thisTrialN,loop_test.thisN,loop_test.thisIndex,loop_eval_discri.thisRepN,loop_eval_discri.thisTrialN,loop_eval_discri.thisN,loop_eval_discri.thisIndex,loop_eval.thisRepN,loop_eval.thisTrialN,loop_eval.thisN,loop_eval.thisIndex,loop_discri.thisRepN,loop_discri.thisTrialN,loop_discri.thisN,loop_discri.thisIndex,thisRow.t,notes,Set_up.started,Set_up.stopped,electrode_check.started,electrode_check.stopped,instructions_eval.started,instructions_eval.stopped,pause_5_test.started,pause_5_test.stopped,Phase_Test.started,thermode_locali.started,thermode_locali.stopped,Phase_Test.stopped,loca_thermode,condition,temp_trial_sent,eval_douleur.started,eval_douleur.stopped,ratingScale.response,ratingScale.rt,Fin_test.started,text.started,Fin_test.stopped,pause_5_EVA.started,pause_5_EVA.stopped,tâche_EVA.started,thermode_locali_EVA.started,thermode_locali_EVA.stopped,tâche_EVA.stopped,instructions_discrim.started,instructions_discrim.stopped,pause_5_pic.started,pause_5_pic.stopped,tâche_PIC.started,thermode_locali_pic.started,percu_or.started,responser.started,thermode_locali_pic.stopped,percu_or.stopped,responser.stopped,tâche_PIC.stopped,dur_plateau1,dur_plateau2,dur_plateau1_sent,dur_plateau2_sent,start_plateau_2_resp,dur_pic,dur_rise,pic_presence,pic_response,discrimin_resp.keys,discrimin_resp.rt,discrimin_resp.duration,break_entre_bloc.started,break_entre_bloc.stopped,merci.started,merci.stopped,participant,temp_flat,temp_active,temp_pic_set,com_thermode,date,expName,psychopyVersion,frameRate,expStart,
0,0,0,0,0,0,0,0,,,,,,,,,,,,,123.76841120002791,,0.01709340000525117,120.65704980003648,120.6574090999784,121.90211789996829,121.90212600002997,123.75207239994779,123.75235800002702,128.75205420004204,128.75206139998045,128.76850650005508,140.78524040000048,140.7524936000118,0,inactive,46.6,140.7527130000526,145.48790449998342,52.999999999999986,4.712,,,,,,,,,,,,,,,,,,,,,,,,,,,,,,,,,,,,,,sub-013,46.6,45.2,47.2,COM3,2024-02-05_11h10.21.289,2024_RDpaindiscrimination_maintask,2023.2.3,60.00891729520758,2024-02-05 11h10.40.906921 -0500,
0,0,0,0,1,0,1,0,,,,,,,,,,,,,145.5020759999752,,,,,,,,145.48881819995586,150.48563410004135,150.48564099997748,150.50214190001134,162.51892770000268,162.486062400043,1,active,45.2,162.48620529996697,167.0546067999676,25.000000000000124,4.549,,,,,,,,,,,,,,,,,,,,,,,,,,,,,,,,,,,,,,sub-013,46.6,45.2,47.2,COM3,2024-02-05_11h10.21.289,2024_RDpaindiscrimination_maintask,2023.2.3,60.00891729520758,2024-02-05 11h10.40.906921 -0500,
0,0,0,0,2,0,2,0,,,,,,,,,,,,,167.06898139999248,,,,,,,,167.05542780004907,172.05248049995862,172.0524873000104,172.06902669998817,184.08580829994753,184.0529481000267,2,inactive,46.6,184.0530949999811,188.52119979995769,58.49999999999987,4.449,,,,,,,,,,,,,,,,,,,,,,,,,,,,,,,,,,,,,,sub-013,46.6,45.2,47.2,COM3,2024-02-05_11h10.21.289,2024_RDpaindiscrimination_maintask,2023.2.3,60.00891729520758,2024-02-05 11h10.40.906921 -0500,
0,0,0,0,3,0,3,0,,,,,,,,,,,,,188.53595639998093,,,,,,,,188.52203500003088,193.51943410001695,193.5194411999546,193.53592189995106,205.55272379994858,205.5198358000489,3,inactive,46.6,205.51998990005814,207.9041493999539,51.00000000000003,2.365,,,,,,,,,,,,,,,,,,,,,,,,,,,,,,,,,,,,,,sub-013,46.6,45.2,47.2,COM3,2024-02-05_11h10.21.289,2024_RDpaindiscrimination_maintask,2023.2.3,60.00891729520758,2024-02-05 11h10.40.906921 -0500,
0,0,0,0,4,0,4,0,,,,,,,,,,,,,207.9194131999975,,,,,,,,207.9049125999445,212.90298959997017,212.90299690002576,212.91940120002255,224.93625999998767,224.90336849994492,0,active,45.2,224.90351920004468,228.3209662999725,9.000000000000131,3.398,,,,,,,,,,,,,,,,,,,,,,,,,,,,,,,,,,,,,,sub-013,46.6,45.2,47.2,COM3,2024-02-05_11h10.21.289,2024_RDpaindiscrimination_maintask,2023.2.3,60.00891729520758,2024-02-05 11h10.40.906921 -0500,
0,0,0,0,5,0,5,0,,,,,,,,,,,,,228.3362577999942,,,,,,,,228.32177489995956,233.31985309999436,233.3198600000469,233.33636339998338,245.35320999997202,245.32038659998216,1,inactive,46.6,245.32052990002558,247.08823780005332,20.0,1.749,,,,,,,,,,,,,,,,,,,,,,,,,,,,,,,,,,,,,,sub-013,46.6,45.2,47.2,COM3,2024-02-05_11h10.21.289,2024_RDpaindiscrimination_maintask,2023.2.3,60.00891729520758,2024-02-05 11h10.40.906921 -0500,
0,0,0,0,6,0,6,0,,,,,,,,,,,,,247.10316820000298,,,,,,,,247.08901929995045,252.08668800001033,252.0866952999495,252.10322459996678,264.1200366000412,264.0872512999922,2,active,45.2,264.0873987999512,268.1554693999933,21.500000000000206,4.049,,,,,,,,,,,,,,,,,,,,,,,,,,,,,,,,,,,,,,sub-013,46.6,45.2,47.2,COM3,2024-02-05_11h10.21.289,2024_RDpaindiscrimination_maintask,2023.2.3,60.00891729520758,2024-02-05 11h10.40.906921 -0500,
0,0,0,0,7,0,7,0,,,,,,,,,,,,,268.1700659999624,,,,,,,,268.1562760999659,273.1536058000056,273.15361240005586,273.1700596000301,285.1869204000104,285.1540577999549,3,inactive,46.6,285.1542019000044,289.7057628999464,23.500000000000128,4.533,,,,,,,,,,,,,,,,,,,,,,,,,,,,,,,,,,,,,,sub-013,46.6,45.2,47.2,COM3,2024-02-05_11h10.21.289,2024_RDpaindiscrimination_maintask,2023.2.3,60.00891729520758,2024-02-05 11h10.40.906921 -0500,
0,0,0,0,8,0,8,0,,,,,,,,,,,,,289.7202932999935,,,,,,,,289.7065181999933,294.70384880003985,294.70385629998054,294.72028330003377,306.73715800000355,306.7042956999503,0,active,45.2,306.7044409000082,308.7405104000354,21.999999999999993,2.018,,,,,,,,,,,,,,,,,,,,,,,,,,,,,,,,,,,,,,sub-013,46.6,45.2,47.2,COM3,2024-02-05_11h10.21.289,2024_RDpaindiscrimination_maintask,2023.2.3,60.00891729520758,2024-02-05 11h10.40.906921 -0500,
0,0,0,0,9,0,9,0,,,,,,,,,,,,,308.7538449000567,,,,,,,,308.741331600002,313.737401099992,313.737407800043,313.75390020001214,325.7706220999826,325.73784019995946,1,inactive,46.6,325.7379884000402,328.5753270999994,35.99999999999995,2.818,,,,,,,,,,,,,,,,,,,,,,,,,,,,,,,,,,,,,,sub-013,46.6,45.2,47.2,COM3,2024-02-05_11h10.21.289,2024_RDpaindiscrimination_maintask,2023.2.3,60.00891729520758,2024-02-05 11h10.40.906921 -0500,
0,0,0,0,10,0,10,0,,,,,,,,,,,,,328.5873595000012,,,,,,,,328.5758932000026,333.5708362000296,333.57084349996876,333.58736969996244,345.60425420000684,345.57139429997187,2,active,45.2,345.5715371000115,348.79092569998465,27.50000000000015,3.201,,,,,,,,,,,,,,,,,,,,,,,,,,,,,,,,,,,,,,sub-013,46.6,45.2,47.2,COM3,2024-02-05_11h10.21.289,2024_RDpaindiscrimination_maintask,2023.2.3,60.00891729520758,2024-02-05 11h10.40.906921 -0500,
0,0,0,0,11,0,11,0,,,,,,,,,,,,,348.8042382999556,,,,,,,,348.7916916999966,353.78774339996744,353.78775090002455,353.8042277999921,365.8210965000326,365.7883573999861,3,active,45.2,365.7884998000227,369.22308719996363,14.500000000000004,3.415,,,,,,,,,,,,,,,,,,,,,,,,,,,,,,,,,,,,,,sub-013,46.6,45.2,47.2,COM3,2024-02-05_11h10.21.289,2024_RDpaindiscrimination_maintask,2023.2.3,60.00891729520758,2024-02-05 11h10.40.906921 -0500,
0,0,0,0,12,0,12,0,,,,,,,,,,,,,369.23777560004964,,,,,,,,369.2238787000533,374.2212807999458,374.2212877999991,374.23778019996826,386.2546943000052,386.22185119998176,0,inactive,46.6,386.2219955000328,389.35661040002014,54.50000000000009,3.116,,,,,,,,,,,,,,,,,,,,,,,,,,,,,,,,,,,,,,sub-013,46.6,45.2,47.2,COM3,2024-02-05_11h10.21.289,2024_RDpaindiscrimination_maintask,2023.2.3,60.00891729520758,2024-02-05 11h10.40.906921 -0500,
0,0,0,0,13,0,13,0,,,,,,,,,,,,,389.37133270001505,,,,,,,,389.35735079995357,394.3548522000201,394.35485909995623,394.37132849998306,406.38812560006045,406.35529059998225,1,active,45.2,406.3554407999618,411.3909858999541,24.0000000000002,5.016,,,,,,,,,,,,,,,,,,,,,,,,,,,,,,,,,,,,,,sub-013,46.6,45.2,47.2,COM3,2024-02-05_11h10.21.289,2024_RDpaindiscrimination_maintask,2023.2.3,60.00891729520758,2024-02-05 11h10.40.906921 -0500,
0,0,0,0,14,0,14,0,,,,,,,,,,,,,411.4048645000439,,,,,,,,411.3917242999887,416.3884395000059,416.38844660006,416.40497509995475,428.421754400013,428.38907639996614,2,inactive,46.6,428.389212399954,433.4739759999793,17.999999999999996,5.065,,,,,,,,,,,,,,,,,,,,,,,,,,,,,,,,,,,,,,sub-013,46.6,45.2,47.2,COM3,2024-02-05_11h10.21.289,2024_RDpaindiscrimination_maintask,2023.2.3,60.00891729520758,2024-02-05 11h10.40.906921 -0500,
0,0,0,0,15,0,15,0,,,,,,,,,,,,,433.48846949997824,,,,,,,,433.47475129994564,438.47208279999904,438.47208950005006,438.488490800024,450.5052986999508,450.4726165999891,3,active,45.2,450.47275469999295,453.3410764000146,10.499999999999991,2.85,,,,,,,,,,,,,,,,,,,,,,,,,,,,,,,,,,,,,,sub-013,46.6,45.2,47.2,COM3,2024-02-05_11h10.21.289,2024_RDpaindiscrimination_maintask,2023.2.3,60.00891729520758,2024-02-05 11h10.40.906921 -0500,
0,0,0,0,,,,,0,0,0,0,0,0,0,0,,,,,503.58920899999794,,,,,,492.9230146999471,503.57281419995707,,,,,,,0,inactive,46.6,520.5730860000476,522.8588560000062,47.999999999999936,2.266,453.3416458000429,453.355350799975,492.9226859000046,503.5731176000554,508.5727560999803,508.57276360003743,508.58932230004575,520.6060630000429,520.5730766999768,,,,,,,,,,,,,,,,,,,,,,,,,,,,,sub-013,46.6,45.2,47.2,COM3,2024-02-05_11h10.21.289,2024_RDpaindiscrimination_maintask,2023.2.3,60.00891729520758,2024-02-05 11h10.40.906921 -0500,
0,0,0,0,,,,,0,0,0,0,1,0,1,0,,,,,522.872831900022,,,,,,,,,,,,,,1,active,46.6,539.8566426000325,543.6413851999678,39.99999999999993,3.765,,,,522.8596732000588,527.8563491000095,527.856356699951,527.8728219999466,539.8896088999463,539.8566351999762,,,,,,,,,,,,,,,,,,,,,,,,,,,,,sub-013,46.6,45.2,47.2,COM3,2024-02-05_11h10.21.289,2024_RDpaindiscrimination_maintask,2023.2.3,60.00891729520758,2024-02-05 11h10.40.906921 -0500,
0,0,0,0,,,,,0,0,0,0,,,,,0,0,0,0,546.9563911999576,,,,,,,,,,,,,,2,inactive,,,,,,,,,,,,,,,543.6419348999625,546.9400346999755,546.9403502000496,551.9399340000236,551.9399419999681,551.956418100046,559.9398693999974,559.9398693999974,562.9065732000163,562.9399110999657,562.9399110999657,562.9234293999616,3.98,4.82,398,482,8,1.2,0.75,pic-absent,0,m,0.9946125999558717,None,,,,,sub-013,46.6,45.2,47.2,COM3,2024-02-05_11h10.21.289,2024_RDpaindiscrimination_maintask,2023.2.3,60.00891729520758,2024-02-05 11h10.40.906921 -0500,
0,0,0,0,,,,,0,0,0,0,,,,,1,0,1,0,562.9399110999657,,,,,,,,,,,,,,3,active,,,,,,,,,,,,,,,,,562.9241773999529,567.9234657000052,567.9234736999497,567.9399695999455,575.9233870999888,575.9233870999888,578.890077100019,578.9234066000208,578.9234066000208,578.9069208999863,4.37,4.43,437,443,8,1.2,0.75,pic-present,1,n,1.1470821999246255,None,,,,,sub-013,46.6,45.2,47.2,COM3,2024-02-05_11h10.21.289,2024_RDpaindiscrimination_maintask,2023.2.3,60.00891729520758,2024-02-05 11h10.40.906921 -0500,
0,0,0,0,,,,,0,0,0,0,,,,,2,0,2,0,578.9234066000208,,,,,,,,,,,,,,0,inactive,,,,,,,,,,,,,,,,,578.9073985000141,583.9069267000305,583.9069339999696,583.9234360000119,591.9068644000217,591.9068644000217,594.8735561999492,594.9069556000177,594.9069556000177,594.890402500052,4.45,4.35,445,434,8,1.2,0.75,pic-absent,0,m,1.436181600089185,None,,,,,sub-013,46.6,45.2,47.2,COM3,2024-02-05_11h10.21.289,2024_RDpaindiscrimination_maintask,2023.2.3,60.00891729520758,2024-02-05 11h10.40.906921 -0500,
0,0,0,0,,,,,0,0,0,0,,,,,3,0,3,0,594.9069556000177,,,,,,,,,,,,,,1,active,,,,,,,,,,,,,,,,,594.8908672999823,599.8904388999799,599.890446400037,599.9069722000277,607.8903850000352,607.8903850000352,610.8571233999683,610.8903741999529,610.8903741999529,610.8739209000487,3.83,4.97,383,497,8,1.2,0.75,pic-present,1,n,0.9246973000699654,None,,,,,sub-013,46.6,45.2,47.2,COM3,2024-02-05_11h10.21.289,2024_RDpaindiscrimination_maintask,2023.2.3,60.00891729520758,2024-02-05 11h10.40.906921 -0500,
0,0,0,0,,,,,1,0,1,0,0,0,0,0,,,,,613.65713279997,,,,,,610.8744127999526,613.6407095999457,,,,,,,2,active,46.6,630.6409662000369,635.6091856999556,51.00000000000007,4.949,,,,613.6410214999923,618.6406520999735,618.6406615000451,618.6571594000561,630.6739509999752,630.6409578999737,,,,,,,,,,,,,,,,,,,,,,,,,,,,,sub-013,46.6,45.2,47.2,COM3,2024-02-05_11h10.21.289,2024_RDpaindiscrimination_maintask,2023.2.3,60.00891729520758,2024-02-05 11h10.40.906921 -0500,
0,0,0,0,,,,,1,0,1,0,1,0,1,0,,,,,635.6240612999536,,,,,,,,,,,,,,3,inactive,46.6,652.6080003000097,655.876576700015,40.50000000000001,3.25,,,,635.6099277000176,640.6075868000044,640.6075942000607,640.6240342999808,652.6408348999685,652.6079921999481,,,,,,,,,,,,,,,,,,,,,,,,,,,,,sub-013,46.6,45.2,47.2,COM3,2024-02-05_11h10.21.289,2024_RDpaindiscrimination_maintask,2023.2.3,60.00891729520758,2024-02-05 11h10.40.906921 -0500,
0,0,0,0,,,,,1,0,1,0,,,,,0,0,0,0,659.374291599961,,,,,,,,,,,,,,0,active,,,,,,,,,,,,,,,655.8771637999453,659.3579067999963,659.358237599954,664.3580188000342,664.3580263999756,664.3744420000585,672.3578434999799,672.3578434999799,675.3246066999855,675.3579180999659,675.3579180999659,675.3414376999717,3.37,5.43,337,543,8,1.2,0.75,pic-absent,1,n,0.6297902999212965,None,,,,,sub-013,46.6,45.2,47.2,COM3,2024-02-05_11h10.21.289,2024_RDpaindiscrimination_maintask,2023.2.3,60.00891729520758,2024-02-05 11h10.40.906921 -0500,
0,0,0,0,,,,,1,0,1,0,,,,,1,0,1,0,675.3579180999659,,,,,,,,,,,,,,1,inactive,,,,,,,,,,,,,,,,,675.3419862999581,680.3414767000359,680.3414841999765,680.3579552000156,688.3413985000225,688.3413985000225,691.3080962999957,691.3414457000326,691.3414457000326,691.3249321000185,4.3,4.5,430,450,8,1.2,0.75,pic-present,1,n,0.8731489999918267,None,,,,,sub-013,46.6,45.2,47.2,COM3,2024-02-05_11h10.21.289,2024_RDpaindiscrimination_maintask,2023.2.3,60.00891729520758,2024-02-05 11h10.40.906921 -0500,
0,0,0,0,,,,,1,0,1,0,,,,,2,0,2,0,691.3414457000326,,,,,,,,,,,,,,2,active,,,,,,,,,,,,,,,,,691.3254091000417,696.3249947000295,696.3250020999694,696.3414898000192,704.3249130999902,704.3249130999902,707.2916111999657,707.3249393999577,707.3249393999577,707.308476199978,4.6,4.2,459,420,8,1.2,0.75,pic-present,1,n,1.9659466999582946,None,,,,,sub-013,46.6,45.2,47.2,COM3,2024-02-05_11h10.21.289,2024_RDpaindiscrimination_maintask,2023.2.3,60.00891729520758,2024-02-05 11h10.40.906921 -0500,
0,0,0,0,,,,,1,0,1,0,,,,,3,0,3,0,707.3249393999577,,,,,,,,,,,,,,3,inactive,,,,,,,,,,,,,,,,,707.3089365999913,712.3084860000527,712.3084938999964,712.3249674000544,720.3084496000083,720.3084496000083,723.2751243000384,723.3084589999635,723.3084589999635,723.2919752000598,3.41,5.39,341,539,8,1.2,0.75,pic-absent,0,m,0.8474441000726074,None,,,,,sub-013,46.6,45.2,47.2,COM3,2024-02-05_11h10.21.289,2024_RDpaindiscrimination_maintask,2023.2.3,60.00891729520758,2024-02-05 11h10.40.906921 -0500,
0,0,0,0,,,,,2,0,2,0,0,0,0,0,,,,,726.5251650999999,,,,,,723.2924893000163,726.5088786999695,,,,,,,0,active,46.6,743.5090576000512,746.2777994000353,39.500000000000036,2.749,,,,726.5091654000571,731.5090594999492,731.5090669000056,731.5251774999779,743.541929100058,743.509049299988,,,,,,,,,,,,,,,,,,,,,,,,,,,,,sub-013,46.6,45.2,47.2,COM3,2024-02-05_11h10.21.289,2024_RDpaindiscrimination_maintask,2023.2.3,60.00891729520758,2024-02-05 11h10.40.906921 -0500,
0,0,0,0,,,,,2,0,2,0,1,0,1,0,,,,,746.2919505999889,,,,,,,,,,,,,,1,inactive,46.6,763.2761185000418,767.8113844000036,24.000000000000057,4.517,,,,746.2785349000478,751.2755108999554,751.2755184000125,751.2920164000243,763.3088217000477,763.2761105999816,,,,,,,,,,,,,,,,,,,,,,,,,,,,,sub-013,46.6,45.2,47.2,COM3,2024-02-05_11h10.21.289,2024_RDpaindiscrimination_maintask,2023.2.3,60.00891729520758,2024-02-05 11h10.40.906921 -0500,
0,0,0,0,,,,,2,0,2,0,,,,,0,0,0,0,770.9756547999568,,,,,,,,,,,,,,2,active,,,,,,,,,,,,,,,767.8119443999603,770.9593815000262,770.95968119998,775.9592426000163,775.9592499999562,775.9756732999813,783.9591390000423,783.9591390000423,786.9258283999516,786.9591802000068,786.9591802000068,786.9426632999675,4.23,4.57,423,457,8,1.2,0.75,pic-present,None,None,,,,,,,sub-013,46.6,45.2,47.2,COM3,2024-02-05_11h10.21.289,2024_RDpaindiscrimination_maintask,2023.2.3,60.00891729520758,2024-02-05 11h10.40.906921 -0500,
0,0,0,0,,,,,2,0,2,0,,,,,1,0,1,0,786.9591802000068,,,,,,,,,,,,,,3,inactive,,,,,,,,,,,,,,,,,786.9431556999916,791.9427517000586,791.9427601000061,791.9592202999629,799.9426480999682,799.9426480999682,802.9092293999856,802.9425607000012,802.9425607000012,802.9260818000184,4.14,4.66,413,466,8,1.2,0.75,pic-absent,0,m,0.7276624999940395,None,,,,,sub-013,46.6,45.2,47.2,COM3,2024-02-05_11h10.21.289,2024_RDpaindiscrimination_maintask,2023.2.3,60.00891729520758,2024-02-05 11h10.40.906921 -0500,
0,0,0,0,,,,,2,0,2,0,,,,,2,0,2,0,802.9425607000012,,,,,,,,,,,,,,0,inactive,,,,,,,,,,,,,,,,,802.9266385999508,807.9261210999684,807.9261289000278,807.942609300022,815.9260378000326,815.9260378000326,818.8927310999716,818.9260743999621,818.9260743999621,818.9095871000318,3.46,5.34,346,534,8,1.2,0.75,pic-present,1,n,0.4577481000451371,None,,,,,sub-013,46.6,45.2,47.2,COM3,2024-02-05_11h10.21.289,2024_RDpaindiscrimination_maintask,2023.2.3,60.00891729520758,2024-02-05 11h10.40.906921 -0500,
0,0,0,0,,,,,2,0,2,0,,,,,3,0,3,0,818.9260743999621,,,,,,,,,,,,,,1,active,,,,,,,,,,,,,,,,,818.9101264999481,823.9097332999809,823.9097406000365,823.9262461999897,831.9096829999471,831.9096829999471,834.8763822000474,834.9096713999752,834.9096713999752,834.8931860000594,3.34,5.46,334,546,8,1.2,0.75,pic-absent,0,m,1.3132954000029713,None,,,,,sub-013,46.6,45.2,47.2,COM3,2024-02-05_11h10.21.289,2024_RDpaindiscrimination_maintask,2023.2.3,60.00891729520758,2024-02-05 11h10.40.906921 -0500,
0,0,0,0,,,,,3,0,3,0,0,0,0,0,,,,,837.9930096999742,,,,,,834.8936605999479,837.9767063000472,,,,,,,2,inactive,46.6,854.977102200035,857.5298513000598,33.50000000000009,2.534,,,,837.9770318999654,842.9766383999959,842.9766461000545,842.9931289999513,855.0099407000234,854.9770932999672,,,,,,,,,,,,,,,,,,,,,,,,,,,,,sub-013,46.6,45.2,47.2,COM3,2024-02-05_11h10.21.289,2024_RDpaindiscrimination_maintask,2023.2.3,60.00891729520758,2024-02-05 11h10.40.906921 -0500,
0,0,0,0,,,,,3,0,3,0,1,0,1,0,,,,,857.5433044000529,,,,,,,,,,,,,,3,active,46.6,874.5271834000014,877.945025300025,31.499999999999993,3.399,,,,857.5306485999608,862.5267316000536,862.5267392999958,862.5432497999864,874.5600322999526,874.5271754000569,,,,,,,,,,,,,,,,,,,,,,,,,,,,,sub-013,46.6,45.2,47.2,COM3,2024-02-05_11h10.21.289,2024_RDpaindiscrimination_maintask,2023.2.3,60.00891729520758,2024-02-05 11h10.40.906921 -0500,
0,0,0,0,,,,,3,0,3,0,,,,,0,0,0,0,880.660144399968,,,,,,,,,,,,,,0,inactive,,,,,,,,,,,,,,,877.9455598000204,880.6438065000111,880.6441443000222,885.6437627000269,885.6437706999714,885.6602369999746,893.6436961999862,893.6436961999862,896.6103187999688,896.6436547000194,896.6436547000194,896.6271774000488,4.12,4.68,412,468,8,1.2,0.75,pic-present,1,n,0.47533829999156296,None,,,,,sub-013,46.6,45.2,47.2,COM3,2024-02-05_11h10.21.289,2024_RDpaindiscrimination_maintask,2023.2.3,60.00891729520758,2024-02-05 11h10.40.906921 -0500,
0,0,0,0,,,,,3,0,3,0,,,,,1,0,1,0,896.6436547000194,,,,,,,,,,,,,,1,active,,,,,,,,,,,,,,,,,896.6276831000578,901.6272001999896,901.6272079000482,901.6437121999916,909.6271751000313,909.6271751000313,912.5939261000603,912.6272145999828,912.6272145999828,912.6107261000434,4.04,4.76,404,476,8,1.2,0.75,pic-absent,0,m,0.4872082000365481,None,,,,,sub-013,46.6,45.2,47.2,COM3,2024-02-05_11h10.21.289,2024_RDpaindiscrimination_maintask,2023.2.3,60.00891729520758,2024-02-05 11h10.40.906921 -0500,
0,0,0,0,,,,,3,0,3,0,,,,,2,0,2,0,912.6272145999828,,,,,,,,,,,,,,2,active,,,,,,,,,,,,,,,,,912.6112095999997,917.6154664000496,917.6154737999896,917.627199599985,925.6106155000161,925.6106155000161,928.5773184000282,928.6106572999852,928.6106572999852,928.5941628,4.67,4.13,467,413,8,1.2,0.75,pic-absent,1,n,0.7803991000400856,None,,,,,sub-013,46.6,45.2,47.2,COM3,2024-02-05_11h10.21.289,2024_RDpaindiscrimination_maintask,2023.2.3,60.00891729520758,2024-02-05 11h10.40.906921 -0500,
0,0,0,0,,,,,3,0,3,0,,,,,3,0,3,0,928.6106572999852,,,,,,,,,,,,,,3,inactive,,,,,,,,,,,,,,,,,928.5946601999458,933.5942019999493,933.5942094000056,933.6106679999502,941.5941211000318,941.5941211000318,944.5608332999982,944.5941319999984,944.5941319999984,944.5776739000576,3.35,5.45,335,545,8,1.2,0.75,pic-present,0,m,0.6482214999850839,None,,,,,sub-013,46.6,45.2,47.2,COM3,2024-02-05_11h10.21.289,2024_RDpaindiscrimination_maintask,2023.2.3,60.00891729520758,2024-02-05 11h10.40.906921 -0500,
1,0,1,0,0,0,0,0,,,,,,,,,,,,,1012.9616525999736,,,,1008.9619969000341,1010.8785614999942,1010.8785743999761,1012.9452232000185,1012.9455422000028,1017.9452034999849,1017.9452108000405,1017.9617121999618,,1029.9452667000005,0,active,45.2,1029.9455013000406,1033.567620899994,0.0,3.599,,,,,,,,,,,,,,,,,,,,,,,,,,,,,,,,,,944.5781128000235,1008.9618706000037,,,sub-013,46.6,45.2,47.2,COM3,2024-02-05_11h10.21.289,2024_RDpaindiscrimination_maintask,2023.2.3,60.00891729520758,2024-02-05 11h10.40.906921 -0500,
1,0,1,0,1,0,1,0,,,,,,,,,,,,,1033.5785600000527,,,,,,,,1033.5681723000016,1038.5621450999752,1038.5621528000338,1038.5785730000352,1050.5954263999593,1050.5625496000284,1,inactive,46.6,1050.5626957999775,1053.547591999988,21.499999999999993,2.966,,,,,,,,,,,,,,,,,,,,,,,,,,,,,,,,,,,,,,sub-013,46.6,45.2,47.2,COM3,2024-02-05_11h10.21.289,2024_RDpaindiscrimination_maintask,2023.2.3,60.00891729520758,2024-02-05 11h10.40.906921 -0500,
1,0,1,0,2,0,2,0,,,,,,,,,,,,,1053.5621304999804,,,,,,,,1053.5483428000007,1058.5457542999648,1058.5457612000173,1058.5622330999468,1070.5789888000581,1070.546181099955,2,active,45.2,1070.5463278000243,1072.364671300049,20.0,1.8,,,,,,,,,,,,,,,,,,,,,,,,,,,,,,,,,,,,,,sub-013,46.6,45.2,47.2,COM3,2024-02-05_11h10.21.289,2024_RDpaindiscrimination_maintask,2023.2.3,60.00891729520758,2024-02-05 11h10.40.906921 -0500,
1,0,1,0,3,0,3,0,,,,,,,,,,,,,1072.3790067000082,,,,,,,,1072.3654549999628,1077.3625637999503,1077.3625714000082,1077.3790368000045,1089.395870200009,1089.3630117999855,3,active,45.2,1089.3631562000373,1094.8474258000497,5.000000000000164,5.465,,,,,,,,,,,,,,,,,,,,,,,,,,,,,,,,,,,,,,sub-013,46.6,45.2,47.2,COM3,2024-02-05_11h10.21.289,2024_RDpaindiscrimination_maintask,2023.2.3,60.00891729520758,2024-02-05 11h10.40.906921 -0500,
1,0,1,0,4,0,4,0,,,,,,,,,,,,,1094.8626045000274,,,,,,,,1094.848225499969,1099.8461624999763,1099.8461696000304,1099.862658899976,1111.879452800029,1111.8466230999911,0,inactive,46.6,1111.8467621000018,1114.91553810006,43.999999999999915,3.05,,,,,,,,,,,,,,,,,,,,,,,,,,,,,,,,,,,,,,sub-013,46.6,45.2,47.2,COM3,2024-02-05_11h10.21.289,2024_RDpaindiscrimination_maintask,2023.2.3,60.00891729520758,2024-02-05 11h10.40.906921 -0500,
1,0,1,0,5,0,5,0,,,,,,,,,,,,,1114.9295062000165,,,,,,,,1114.9162719000597,1119.913020899985,1119.9130279000383,1119.929521300015,1131.9463284000522,1131.9134500999935,1,active,45.2,1131.913592900033,1136.9315978999948,1.5000000000000941,4.999,,,,,,,,,,,,,,,,,,,,,,,,,,,,,,,,,,,,,,sub-013,46.6,45.2,47.2,COM3,2024-02-05_11h10.21.289,2024_RDpaindiscrimination_maintask,2023.2.3,60.00891729520758,2024-02-05 11h10.40.906921 -0500,
1,0,1,0,6,0,6,0,,,,,,,,,,,,,1136.9464483000338,,,,,,,,1136.9323984000366,1141.9299430999672,1141.9299502000213,1141.9464500000468,1153.9632530000526,1153.9303830000572,2,inactive,46.6,1153.9305270999903,1157.9654110999545,45.00000000000006,4.015,,,,,,,,,,,,,,,,,,,,,,,,,,,,,,,,,,,,,,sub-013,46.6,45.2,47.2,COM3,2024-02-05_11h10.21.289,2024_RDpaindiscrimination_maintask,2023.2.3,60.00891729520758,2024-02-05 11h10.40.906921 -0500,
1,0,1,0,7,0,7,0,,,,,,,,,,,,,1157.98004090006,,,,,,,,1157.9661572000477,1162.9635463999584,1162.963553300011,1162.9800283999648,1174.9968176999828,1174.96397729998,3,inactive,46.6,1174.9641210000264,1178.5497840000317,14.000000000000004,3.567,,,,,,,,,,,,,,,,,,,,,,,,,,,,,,,,,,,,,,sub-013,46.6,45.2,47.2,COM3,2024-02-05_11h10.21.289,2024_RDpaindiscrimination_maintask,2023.2.3,60.00891729520758,2024-02-05 11h10.40.906921 -0500,
1,0,1,0,8,0,8,0,,,,,,,,,,,,,1178.5635473000584,,,,,,,,1178.5505459000124,1183.5472774000373,1183.5472843999742,1183.5636414999608,1195.5805280000204,1195.5476803999627,0,active,45.2,1195.547833199962,1201.2662824,11.499999999999993,5.7,,,,,,,,,,,,,,,,,,,,,,,,,,,,,,,,,,,,,,sub-013,46.6,45.2,47.2,COM3,2024-02-05_11h10.21.289,2024_RDpaindiscrimination_maintask,2023.2.3,60.00891729520758,2024-02-05 11h10.40.906921 -0500,
1,0,1,0,9,0,9,0,,,,,,,,,,,,,1201.2805946000153,,,,,,,,1201.267067000037,1206.2641513999552,1206.2641588000115,1206.2805789000122,1218.297379800002,1218.2645856000017,1,inactive,46.6,1218.2647383000003,1221.91601549997,26.500000000000014,3.632,,,,,,,,,,,,,,,,,,,,,,,,,,,,,,,,,,,,,,sub-013,46.6,45.2,47.2,COM3,2024-02-05_11h10.21.289,2024_RDpaindiscrimination_maintask,2023.2.3,60.00891729520758,2024-02-05 11h10.40.906921 -0500,
1,0,1,0,10,0,10,0,,,,,,,,,,,,,1221.930822000024,,,,,,,,1221.9168024000246,1226.9143864000216,1226.9143938999623,1226.9308869000524,1238.9476945999777,1238.9148300000234,2,active,45.2,1238.9149683000287,1244.0498671999667,23.5000000000002,5.116,,,,,,,,,,,,,,,,,,,,,,,,,,,,,,,,,,,,,,sub-013,46.6,45.2,47.2,COM3,2024-02-05_11h10.21.289,2024_RDpaindiscrimination_maintask,2023.2.3,60.00891729520758,2024-02-05 11h10.40.906921 -0500,
1,0,1,0,11,0,11,0,,,,,,,,,,,,,1244.0643982000183,,,,,,,,1244.0506452999543,1249.047987799975,1249.04799500003,1249.0644753000233,1261.081289099995,1261.0483685999643,3,inactive,46.6,1261.0485102999955,1264.4342171000317,22.50000000000017,3.367,,,,,,,,,,,,,,,,,,,,,,,,,,,,,,,,,,,,,,sub-013,46.6,45.2,47.2,COM3,2024-02-05_11h10.21.289,2024_RDpaindiscrimination_maintask,2023.2.3,60.00891729520758,2024-02-05 11h10.40.906921 -0500,
1,0,1,0,12,0,12,0,,,,,,,,,,,,,1264.4480020999908,,,,,,,,1264.4350019999547,1269.4315109000308,1269.4315178999677,1269.4479545999784,1281.4648077000165,1281.431928499951,0,inactive,46.6,1281.4320734000066,1286.0505406999728,29.500000000000142,4.598,,,,,,,,,,,,,,,,,,,,,,,,,,,,,,,,,,,,,,sub-013,46.6,45.2,47.2,COM3,2024-02-05_11h10.21.289,2024_RDpaindiscrimination_maintask,2023.2.3,60.00891729520758,2024-02-05 11h10.40.906921 -0500,
1,0,1,0,13,0,13,0,,,,,,,,,,,,,1286.0647848000517,,,,,,,,1286.0513317000587,1291.0483544999734,1291.048361400026,1291.064886600012,1303.0816519999644,1303.0488437999738,1,active,45.2,1303.0489866000134,1308.067882800009,5.499999999999988,5.0,,,,,,,,,,,,,,,,,,,,,,,,,,,,,,,,,,,,,,sub-013,46.6,45.2,47.2,COM3,2024-02-05_11h10.21.289,2024_RDpaindiscrimination_maintask,2023.2.3,60.00891729520758,2024-02-05 11h10.40.906921 -0500,
1,0,1,0,14,0,14,0,,,,,,,,,,,,,1308.0817110999487,,,,,,,,1308.0687457000604,1313.0653157000197,1313.0653229999589,1313.0817710000556,1325.0985976000084,1325.0657064999687,2,inactive,46.6,1325.0658525000326,1327.2512797999661,30.500000000000036,2.167,,,,,,,,,,,,,,,,,,,,,,,,,,,,,,,,,,,,,,sub-013,46.6,45.2,47.2,COM3,2024-02-05_11h10.21.289,2024_RDpaindiscrimination_maintask,2023.2.3,60.00891729520758,2024-02-05 11h10.40.906921 -0500,
1,0,1,0,15,0,15,0,,,,,,,,,,,,,1327.2653030999936,,,,,,,,1327.2520503000123,1332.2488641999662,1332.2488715000218,1332.2653589999536,1344.2822491000406,1344.2493505000602,3,active,45.2,1344.2495021000504,1348.5841786999954,4.500000000000129,4.315,,,,,,,,,,,,,,,,,,,,,,,,,,,,,,,,,,,,,,sub-013,46.6,45.2,47.2,COM3,2024-02-05_11h10.21.289,2024_RDpaindiscrimination_maintask,2023.2.3,60.00891729520758,2024-02-05 11h10.40.906921 -0500,
1,0,1,0,,,,,0,0,0,0,0,0,0,0,,,,,1367.7657961000223,,,,,,1363.1663042999571,1367.7493719999911,,,,,,,0,active,46.6,1384.7496563999448,1388.269027399947,40.00000000000011,3.501,1348.5847487000283,1348.5988727000076,1363.1659880999941,1367.74965360004,1372.749323499971,1372.7493312000297,1372.7658275000285,1384.7826249999925,1384.7496474999934,,,,,,,,,,,,,,,,,,,,,,,,,,,,,sub-013,46.6,45.2,47.2,COM3,2024-02-05_11h10.21.289,2024_RDpaindiscrimination_maintask,2023.2.3,60.00891729520758,2024-02-05 11h10.40.906921 -0500,
1,0,1,0,,,,,0,0,0,0,1,0,1,0,,,,,1388.2827008999884,,,,,,,,,,,,,,1,inactive,46.6,1405.2666688000318,1408.91939429997,25.00000000000009,3.634,,,,1388.2697823999915,1393.2662060000002,1393.2662133000558,1393.2827055000234,1405.2995217000134,1405.2666604999686,,,,,,,,,,,,,,,,,,,,,,,,,,,,,sub-013,46.6,45.2,47.2,COM3,2024-02-05_11h10.21.289,2024_RDpaindiscrimination_maintask,2023.2.3,60.00891729520758,2024-02-05 11h10.40.906921 -0500,
1,0,1,0,,,,,0,0,0,0,,,,,0,0,0,0,1411.382905800012,,,,,,,,,,,,,,2,active,,,,,,,,,,,,,,,1408.9199259000598,1411.3665326000191,1411.3668536000187,1416.366524299956,1416.3665319000138,1416.3829733999446,1424.3664478999563,1424.3664478999563,1427.3331096000038,1427.3664375999942,1427.3664375999942,1427.3499505999498,4.32,4.48,432,448,8,1.2,0.75,pic-absent,0,m,1.2837334999348968,None,,,,,sub-013,46.6,45.2,47.2,COM3,2024-02-05_11h10.21.289,2024_RDpaindiscrimination_maintask,2023.2.3,60.00891729520758,2024-02-05 11h10.40.906921 -0500,
1,0,1,0,,,,,0,0,0,0,,,,,1,0,1,0,1427.3664375999942,,,,,,,,,,,,,,3,inactive,,,,,,,,,,,,,,,,,1427.3504747999832,1432.350039800047,1432.3500473999884,1432.3664827999892,1440.349919799948,1440.349919799948,1443.3166302000172,1443.3499553999864,1443.3499553999864,1443.3334909999976,4.01,4.79,401,479,8,1.2,0.75,pic-absent,0,m,1.104878899990581,None,,,,,sub-013,46.6,45.2,47.2,COM3,2024-02-05_11h10.21.289,2024_RDpaindiscrimination_maintask,2023.2.3,60.00891729520758,2024-02-05 11h10.40.906921 -0500,
1,0,1,0,,,,,0,0,0,0,,,,,2,0,2,0,1443.3499553999864,,,,,,,,,,,,,,0,active,,,,,,,,,,,,,,,,,1443.3339367000153,1448.3335030999733,1448.333510800032,1448.3500119999517,1456.3334403999615,1456.3334403999615,1459.3001398999477,1459.3334778000135,1459.3334778000135,1459.3170181999449,3.58,5.22,358,522,8,1.2,0.75,pic-present,1,n,0.6007557000266388,None,,,,,sub-013,46.6,45.2,47.2,COM3,2024-02-05_11h10.21.289,2024_RDpaindiscrimination_maintask,2023.2.3,60.00891729520758,2024-02-05 11h10.40.906921 -0500,
1,0,1,0,,,,,0,0,0,0,,,,,3,0,3,0,1459.3334778000135,,,,,,,,,,,,,,1,inactive,,,,,,,,,,,,,,,,,1459.317509699962,1464.3170552999945,1464.3170637000585,1464.3335336999735,1472.3169670000207,1472.3169670000207,1475.2836615999695,1475.31703070004,1475.31703070004,1475.3004942999687,4.14,4.66,413,466,8,1.2,0.75,pic-present,1,n,1.0824882000451908,None,,,,,sub-013,46.6,45.2,47.2,COM3,2024-02-05_11h10.21.289,2024_RDpaindiscrimination_maintask,2023.2.3,60.00891729520758,2024-02-05 11h10.40.906921 -0500,
1,0,1,0,,,,,1,0,1,0,0,0,0,0,,,,,1480.6003769000527,,,,,,1475.30100820004,1480.5839938999852,,,,,,,2,inactive,46.6,1497.5843943000073,1501.1192864000332,33.99999999999996,3.516,,,,1480.5843069000402,1485.5839850000339,1485.5839921999723,1485.6004283999791,1497.6172451999737,1497.5843856000574,,,,,,,,,,,,,,,,,,,,,,,,,,,,,sub-013,46.6,45.2,47.2,COM3,2024-02-05_11h10.21.289,2024_RDpaindiscrimination_maintask,2023.2.3,60.00891729520758,2024-02-05 11h10.40.906921 -0500,
1,0,1,0,,,,,1,0,1,0,1,0,1,0,,,,,1501.1340097000357,,,,,,,,,,,,,,3,active,46.6,1518.1179970999947,1520.4866840000032,26.500000000000014,2.35,,,,1501.1200488000177,1506.1175551000051,1506.1175629999489,1506.1341049999464,1518.1508993000025,1518.1179886000464,,,,,,,,,,,,,,,,,,,,,,,,,,,,,sub-013,46.6,45.2,47.2,COM3,2024-02-05_11h10.21.289,2024_RDpaindiscrimination_maintask,2023.2.3,60.00891729520758,2024-02-05 11h10.40.906921 -0500,
1,0,1,0,,,,,1,0,1,0,,,,,0,0,0,0,1523.2342546000145,,,,,,,,,,,,,,0,inactive,,,,,,,,,,,,,,,1520.4871992999688,1523.2178528000368,1523.2181832999922,1528.21782609995,1528.2178333000047,1528.2343083999585,1536.2177561999997,1536.2177561999997,1539.1844397999812,1539.217785099987,1539.217785099987,1539.201292200014,4.19,4.61,419,461,8,1.2,0.75,pic-absent,1,n,0.6657961999299005,None,,,,,sub-013,46.6,45.2,47.2,COM3,2024-02-05_11h10.21.289,2024_RDpaindiscrimination_maintask,2023.2.3,60.00891729520758,2024-02-05 11h10.40.906921 -0500,
1,0,1,0,,,,,1,0,1,0,,,,,1,0,1,0,1539.217785099987,,,,,,,,,,,,,,1,active,,,,,,,,,,,,,,,,,1539.201826000004,1544.2013278000522,1544.2013358999975,1544.2178816000232,1552.2013001999585,1552.2013001999585,1555.167984000058,1555.2012793000322,1555.2012793000322,1555.184809600003,4.02,4.78,401,478,8,1.2,0.75,pic-present,0,m,1.2410546999890357,None,,,,,sub-013,46.6,45.2,47.2,COM3,2024-02-05_11h10.21.289,2024_RDpaindiscrimination_maintask,2023.2.3,60.00891729520758,2024-02-05 11h10.40.906921 -0500,
1,0,1,0,,,,,1,0,1,0,,,,,2,0,2,0,1555.2012793000322,,,,,,,,,,,,,,2,inactive,,,,,,,,,,,,,,,,,1555.1852851000149,1560.184893699945,1560.184901600005,1560.2013576000463,1568.1847920999862,1568.1847920999862,1571.1514804000035,1571.1848463000497,1571.1848463000497,1571.1683349000523,3.41,5.39,341,539,8,1.2,0.75,pic-absent,1,n,0.9215560000156984,None,,,,,sub-013,46.6,45.2,47.2,COM3,2024-02-05_11h10.21.289,2024_RDpaindiscrimination_maintask,2023.2.3,60.00891729520758,2024-02-05 11h10.40.906921 -0500,
1,0,1,0,,,,,1,0,1,0,,,,,3,0,3,0,1571.1848463000497,,,,,,,,,,,,,,3,active,,,,,,,,,,,,,,,,,1571.1687992999796,1576.1683706999756,1576.1683784000343,1576.1848872000119,1584.1683003000217,1584.1683003000217,1587.1349919999484,1587.1683301000157,1587.1683301000157,1587.1518433999736,4.64,4.16,463,416,8,1.2,0.75,pic-present,1,n,1.2579043000005186,None,,,,,sub-013,46.6,45.2,47.2,COM3,2024-02-05_11h10.21.289,2024_RDpaindiscrimination_maintask,2023.2.3,60.00891729520758,2024-02-05 11h10.40.906921 -0500,
1,0,1,0,,,,,2,0,2,0,0,0,0,0,,,,,1590.0517432000488,,,,,,1587.152343200054,1590.0353083000518,,,,,,,0,inactive,46.6,1607.0357377999462,1609.8209853000008,38.00000000000004,2.767,,,,1590.0356018999591,1595.035382800037,1595.0353898999747,1595.0517618999584,1607.0685681999894,1607.0357284999918,,,,,,,,,,,,,,,,,,,,,,,,,,,,,sub-013,46.6,45.2,47.2,COM3,2024-02-05_11h10.21.289,2024_RDpaindiscrimination_maintask,2023.2.3,60.00891729520758,2024-02-05 11h10.40.906921 -0500,
1,0,1,0,,,,,2,0,2,0,1,0,1,0,,,,,1609.835277999984,,,,,,,,,,,,,,1,active,46.6,1626.8192170000402,1630.0537141000386,25.50000000000012,3.216,,,,1609.8217697000364,1614.8188246999634,1614.8188319000183,1614.8353532999754,1626.8521298000123,1626.8192087999778,,,,,,,,,,,,,,,,,,,,,,,,,,,,,sub-013,46.6,45.2,47.2,COM3,2024-02-05_11h10.21.289,2024_RDpaindiscrimination_maintask,2023.2.3,60.00891729520758,2024-02-05 11h10.40.906921 -0500,
1,0,1,0,,,,,2,0,2,0,,,,,0,0,0,0,1632.868834199966,,,,,,,,,,,,,,2,inactive,,,,,,,,,,,,,,,1630.0542314000195,1632.8524865000509,1632.8528122999705,1637.8523924000328,1637.8524015999865,1637.868920500041,1645.8523599000182,1645.8523599000182,1648.819019400049,1648.8523539999733,1648.8523539999733,1648.835906799999,3.65,5.15,365,515,8,1.2,0.75,pic-present,1,n,1.357937499997206,None,,,,,sub-013,46.6,45.2,47.2,COM3,2024-02-05_11h10.21.289,2024_RDpaindiscrimination_maintask,2023.2.3,60.00891729520758,2024-02-05 11h10.40.906921 -0500,
1,0,1,0,,,,,2,0,2,0,,,,,1,0,1,0,1648.8523539999733,,,,,,,,,,,,,,3,active,,,,,,,,,,,,,,,,,1648.8364199999487,1653.835949099972,1653.835956600029,1653.8524084000383,1661.8358379000565,1661.8358379000565,1664.8025560999522,1664.8358712999616,1664.8358712999616,1664.819385800045,4.16,4.64,416,463,8,1.2,0.75,pic-absent,1,n,1.1828779999632388,None,,,,,sub-013,46.6,45.2,47.2,COM3,2024-02-05_11h10.21.289,2024_RDpaindiscrimination_maintask,2023.2.3,60.00891729520758,2024-02-05 11h10.40.906921 -0500,
1,0,1,0,,,,,2,0,2,0,,,,,2,0,2,0,1664.8358712999616,,,,,,,,,,,,,,0,inactive,,,,,,,,,,,,,,,,,1664.8198308000574,1669.8194508999586,1669.8194584000157,1669.835928900051,1677.8194255999988,1677.8194255999988,1680.7861424000002,1680.8195182000054,1680.8195182000054,1680.8030316999648,3.71,5.09,371,509,8,1.2,0.75,pic-present,1,n,1.239638299914077,None,,,,,sub-013,46.6,45.2,47.2,COM3,2024-02-05_11h10.21.289,2024_RDpaindiscrimination_maintask,2023.2.3,60.00891729520758,2024-02-05 11h10.40.906921 -0500,
1,0,1,0,,,,,2,0,2,0,,,,,3,0,3,0,1680.8195182000054,,,,,,,,,,,,,,1,active,,,,,,,,,,,,,,,,,1680.8035275000148,1685.8029712999705,1685.8029813000467,1685.819451599964,1693.8028763999464,1693.8028763999464,1696.7695829999866,1696.802916500019,1696.802916500019,1696.7864315999905,4.19,4.61,419,461,8,1.2,0.75,pic-absent,0,m,0.4037352999439463,None,,,,,sub-013,46.6,45.2,47.2,COM3,2024-02-05_11h10.21.289,2024_RDpaindiscrimination_maintask,2023.2.3,60.00891729520758,2024-02-05 11h10.40.906921 -0500,
1,0,1,0,,,,,3,0,3,0,0,0,0,0,,,,,1698.6030111999717,,,,,,1696.786946899956,1698.5868669999763,,,,,,,2,active,46.6,1715.5869807000272,1718.2055306000402,25.99999999999998,2.6,,,,1698.5872004999546,1703.5864958999446,1703.5865034000017,1703.6029940999579,1715.6197891000193,1715.5869720999617,,,,,,,,,,,,,,,,,,,,,,,,,,,,,sub-013,46.6,45.2,47.2,COM3,2024-02-05_11h10.21.289,2024_RDpaindiscrimination_maintask,2023.2.3,60.00891729520758,2024-02-05 11h10.40.906921 -0500,
1,0,1,0,,,,,3,0,3,0,1,0,1,0,,,,,1718.2198212000076,,,,,,,,,,,,,,3,inactive,46.6,1735.2038080999628,1739.0219914000481,29.000000000000146,3.799,,,,1718.20634959999,1723.2033815999748,1723.2033892000327,1723.2198676000116,1735.2368049999932,1735.2038004000206,,,,,,,,,,,,,,,,,,,,,,,,,,,,,sub-013,46.6,45.2,47.2,COM3,2024-02-05_11h10.21.289,2024_RDpaindiscrimination_maintask,2023.2.3,60.00891729520758,2024-02-05 11h10.40.906921 -0500,
1,0,1,0,,,,,3,0,3,0,,,,,0,0,0,0,1743.253527999972,,,,,,,,,,,,,,0,active,,,,,,,,,,,,,,,1739.022577799973,1743.2371239999775,1743.2374552000547,1748.2370281999465,1748.237035500002,1748.2535464999964,1756.237067500013,1756.237067500013,1759.2036762000062,1759.2371264999965,1759.2371264999965,1759.220595599967,3.66,5.14,366,514,8,1.2,0.75,pic-present,1,n,1.3576140000950545,None,,,,,sub-013,46.6,45.2,47.2,COM3,2024-02-05_11h10.21.289,2024_RDpaindiscrimination_maintask,2023.2.3,60.00891729520758,2024-02-05 11h10.40.906921 -0500,
1,0,1,0,,,,,3,0,3,0,,,,,1,0,1,0,1759.2371264999965,,,,,,,,,,,,,,1,inactive,,,,,,,,,,,,,,,,,1759.2211219000164,1764.2205570000224,1764.2205687999958,1764.2370938999811,1772.2204798000166,1772.2204798000166,1775.1871947000036,1775.220525200013,1775.220525200013,1775.2040499000577,4.31,4.49,430,449,8,1.2,0.75,pic-present,1,n,0.942098000086844,None,,,,,sub-013,46.6,45.2,47.2,COM3,2024-02-05_11h10.21.289,2024_RDpaindiscrimination_maintask,2023.2.3,60.00891729520758,2024-02-05 11h10.40.906921 -0500,
1,0,1,0,,,,,3,0,3,0,,,,,2,0,2,0,1775.220525200013,,,,,,,,,,,,,,2,active,,,,,,,,,,,,,,,,,1775.2045292999828,1780.2041124999523,1780.2041200000094,1780.2205765000544,1788.204067899962,1788.204067899962,1791.1707180000376,1791.2040518999565,1791.2040518999565,1791.1875607999973,4.56,4.24,455,424,8,1.2,0.75,pic-absent,0,m,0.5300888000056148,None,,,,,sub-013,46.6,45.2,47.2,COM3,2024-02-05_11h10.21.289,2024_RDpaindiscrimination_maintask,2023.2.3,60.00891729520758,2024-02-05 11h10.40.906921 -0500,
1,0,1,0,,,,,3,0,3,0,,,,,3,0,3,0,1791.2040518999565,,,,,,,,,,,,,,3,inactive,,,,,,,,,,,,,,,,,1791.1880363000091,1796.1876161999535,1796.1876238000114,1796.2041126999538,1804.1874950999627,1804.1874950999627,1807.1541985999793,1807.1875292999903,1807.1875292999903,1807.171079199994,3.48,5.32,348,532,8,1.2,0.75,pic-absent,1,n,0.7709764000028372,None,,,,,sub-013,46.6,45.2,47.2,COM3,2024-02-05_11h10.21.289,2024_RDpaindiscrimination_maintask,2023.2.3,60.00891729520758,2024-02-05 11h10.40.906921 -0500,
,,,,,,,,,,,,,,,,,,,,,,,,,,,,,,,,,,,,,,,,,,,,,,,,,,,,,,,,,,,,,,,,,,,,,,,,,,1807.1716207000427,1810.5544968999457,1810.5545208000112,1820.5545241000364,,,,,,,,,,,
