trials.thisRepN,trials.thisTrialN,trials.thisN,trials.thisIndex,loop_test.thisRepN,loop_test.thisTrialN,loop_test.thisN,loop_test.thisIndex,loop_eval_discri.thisRepN,loop_eval_discri.thisTrialN,loop_eval_discri.thisN,loop_eval_discri.thisIndex,loop_eval.thisRepN,loop_eval.thisTrialN,loop_eval.thisN,loop_eval.thisIndex,loop_discri.thisRepN,loop_discri.thisTrialN,loop_discri.thisN,loop_discri.thisIndex,thisRow.t,notes,Set_up.started,Set_up.stopped,electrode_check.started,electrode_check.stopped,instructions_eval.started,instructions_eval.stopped,pause_5_test.started,pause_5_test.stopped,Phase_Test.started,thermode_locali.started,Phase_Test.stopped,loca_thermode,condition,temp_trial_sent,eval_douleur.started,eval_douleur.stopped,ratingScale.response,ratingScale.rt,thermode_locali.stopped,Fin_test.started,text.started,Fin_test.stopped,pause_5_EVA.started,pause_5_EVA.stopped,tâche_EVA.started,thermode_locali_EVA.started,thermode_locali_EVA.stopped,tâche_EVA.stopped,instructions_discrim.started,instructions_discrim.stopped,pause_5_pic.started,pause_5_pic.stopped,tâche_PIC.started,thermode_locali_pic.started,percu_or.started,responser.started,thermode_locali_pic.stopped,percu_or.stopped,responser.stopped,tâche_PIC.stopped,dur_plateau1,dur_plateau2,dur_plateau1_sent,dur_plateau2_sent,start_plateau_2_resp,dur_pic,dur_rise,pic_presence,pic_response,discrimin_resp.keys,discrimin_resp.rt,discrimin_resp.duration,break_entre_bloc.started,break_entre_bloc.stopped,merci.started,merci.stopped,participant,temp_flat,temp_active,temp_pic_set,com_thermode,date,expName,psychopyVersion,frameRate,expStart,
0,0,0,0,0,0,0,0,,,,,,,,,,,,,170.36346849997062,,0.01155940000899136,163.3805915999692,163.38095469999826,167.41381779999938,167.41382620000513,170.3347241000156,170.33504759997595,175.3470159000135,175.34702190000098,175.3636344000115,187.34710419998737,0,inactive,42.6,187.34733770001912,197.26667709997855,8.499999999999998,9.896,,,,,,,,,,,,,,,,,,,,,,,,,,,,,,,,,,,,,,,sub-046,42.6,41.8,43.5,COM3,2024-07-08_13h39.19.501,2024_RDpaindiscrimination_maintask,2023.2.3,60.01720094198867,2024-07-08 13h39.40.614623 -0400,
0,0,0,0,1,0,1,0,,,,,,,,,,,,,197.280452099978,,,,,,,,197.26756920001935,202.26407390000531,202.26408029999584,202.28056240000296,214.2644914999837,1,active,41.8,214.26463240000885,218.03335519996472,44.00000000000002,3.75,214.297385199985,,,,,,,,,,,,,,,,,,,,,,,,,,,,,,,,,,,,,,sub-046,42.6,41.8,43.5,COM3,2024-07-08_13h39.19.501,2024_RDpaindiscrimination_maintask,2023.2.3,60.01720094198867,2024-07-08 13h39.40.614623 -0400,
0,0,0,0,2,0,2,0,,,,,,,,,,,,,218.04742750001606,,,,,,,,218.0341397000011,223.0309738999931,223.03098139999202,223.04744589998154,235.03145760000916,2,inactive,42.6,235.03161210002145,239.6489991999697,37.999999999999936,4.599,235.0642885999987,,,,,,,,,,,,,,,,,,,,,,,,,,,,,,,,,,,,,,sub-046,42.6,41.8,43.5,COM3,2024-07-08_13h39.19.501,2024_RDpaindiscrimination_maintask,2023.2.3,60.01720094198867,2024-07-08 13h39.40.614623 -0400,
0,0,0,0,3,0,3,0,,,,,,,,,,,,,239.66434989997651,,,,,,,,239.6497592999949,244.64789089997066,244.64789770002244,244.66440599999623,256.6482995999977,3,inactive,42.6,256.6484412999707,261.0178822000162,48.99999999999997,4.351,256.6811999999918,,,,,,,,,,,,,,,,,,,,,,,,,,,,,,,,,,,,,,sub-046,42.6,41.8,43.5,COM3,2024-07-08_13h39.19.501,2024_RDpaindiscrimination_maintask,2023.2.3,60.01720094198867,2024-07-08 13h39.40.614623 -0400,
0,0,0,0,4,0,4,0,,,,,,,,,,,,,261.03118360001827,,,,,,,,261.01869459997397,266.01485440001125,266.01486090000253,266.0313212000183,278.01532599999337,0,active,41.8,278.0154666000162,283.3667628999683,46.49999999999991,5.332,278.0480713999714,,,,,,,,,,,,,,,,,,,,,,,,,,,,,,,,,,,,,,sub-046,42.6,41.8,43.5,COM3,2024-07-08_13h39.19.501,2024_RDpaindiscrimination_maintask,2023.2.3,60.01720094198867,2024-07-08 13h39.40.614623 -0400,
0,0,0,0,5,0,5,0,,,,,,,,,,,,,283.38143489998765,,,,,,,,283.36757080000825,288.365102700016,288.3651097000111,288.3815852999687,300.3655544000212,1,inactive,42.6,300.3656999999657,305.5836089999648,57.000000000000014,5.199,300.3984158000094,,,,,,,,,,,,,,,,,,,,,,,,,,,,,,,,,,,,,,sub-046,42.6,41.8,43.5,COM3,2024-07-08_13h39.19.501,2024_RDpaindiscrimination_maintask,2023.2.3,60.01720094198867,2024-07-08 13h39.40.614623 -0400,
0,0,0,0,6,0,6,0,,,,,,,,,,,,,305.5984644999844,,,,,,,,305.5843782000011,310.58202929998515,310.5820358999772,310.59845769999083,322.58249709999654,2,active,41.8,322.58264219999546,327.9836323999916,49.49999999999989,5.382,322.6153306000051,,,,,,,,,,,,,,,,,,,,,,,,,,,,,,,,,,,,,,sub-046,42.6,41.8,43.5,COM3,2024-07-08_13h39.19.501,2024_RDpaindiscrimination_maintask,2023.2.3,60.01720094198867,2024-07-08 13h39.40.614623 -0400,
0,0,0,0,7,0,7,0,,,,,,,,,,,,,327.99873859999934,,,,,,,,327.98444989998825,332.9822839999688,332.9822909000213,332.998746199999,344.9827927000006,3,active,41.8,344.9829340999713,349.5177879999974,47.999999999999936,4.516,345.01560109999264,,,,,,,,,,,,,,,,,,,,,,,,,,,,,,,,,,,,,,sub-046,42.6,41.8,43.5,COM3,2024-07-08_13h39.19.501,2024_RDpaindiscrimination_maintask,2023.2.3,60.01720094198867,2024-07-08 13h39.40.614623 -0400,
0,0,0,0,8,0,8,0,,,,,,,,,,,,,349.5322156000184,,,,,,,,349.5186334999744,354.5158753999858,354.5158823999809,354.53229750000173,366.5162857999676,0,inactive,42.6,366.5164272999973,373.33450789999915,33.00000000000003,6.799,366.549180699978,,,,,,,,,,,,,,,,,,,,,,,,,,,,,,,,,,,,,,sub-046,42.6,41.8,43.5,COM3,2024-07-08_13h39.19.501,2024_RDpaindiscrimination_maintask,2023.2.3,60.01720094198867,2024-07-08 13h39.40.614623 -0400,
0,0,0,0,9,0,9,0,,,,,,,,,,,,,373.34915229998296,,,,,,,,373.3353022999945,378.3326281000045,378.33263520000037,378.3492209999822,390.33325079997303,1,active,41.8,390.33339019998675,396.1350206999923,38.00000000000004,5.783,390.36609610001324,,,,,,,,,,,,,,,,,,,,,,,,,,,,,,,,,,,,,,sub-046,42.6,41.8,43.5,COM3,2024-07-08_13h39.19.501,2024_RDpaindiscrimination_maintask,2023.2.3,60.01720094198867,2024-07-08 13h39.40.614623 -0400,
0,0,0,0,10,0,10,0,,,,,,,,,,,,,396.14947770000435,,,,,,,,396.13586609996855,401.1330736000091,401.1330803000019,401.1494641000172,413.1334466999979,2,inactive,42.6,413.1335939000128,418.27012519998243,53.0000000000001,5.118,413.1662999999826,,,,,,,,,,,,,,,,,,,,,,,,,,,,,,,,,,,,,,sub-046,42.6,41.8,43.5,COM3,2024-07-08_13h39.19.501,2024_RDpaindiscrimination_maintask,2023.2.3,60.01720094198867,2024-07-08 13h39.40.614623 -0400,
0,0,0,0,11,0,11,0,,,,,,,,,,,,,418.2829930000007,,,,,,,,418.2709288999904,423.26662329997635,423.26662999996915,423.28314060001867,435.2671604999923,3,inactive,42.6,435.26730449998286,439.68521069997223,49.50000000000011,4.35,435.34994869999355,,,,,,,,,,,,,,,,,,,,,,,,,,,,,,,,,,,,,,sub-046,42.6,41.8,43.5,COM3,2024-07-08_13h39.19.501,2024_RDpaindiscrimination_maintask,2023.2.3,60.01720094198867,2024-07-08 13h39.40.614623 -0400,
0,0,0,0,12,0,12,0,,,,,,,,,,,,,439.69994459999725,,,,,,,,439.68601060000947,444.68354499997804,444.68355169997085,444.6999457000056,456.6840407999698,0,active,41.8,456.6841824000003,460.95199349999893,54.99999999999994,4.249,456.71683789999224,,,,,,,,,,,,,,,,,,,,,,,,,,,,,,,,,,,,,,sub-046,42.6,41.8,43.5,COM3,2024-07-08_13h39.19.501,2024_RDpaindiscrimination_maintask,2023.2.3,60.01720094198867,2024-07-08 13h39.40.614623 -0400,
0,0,0,0,13,0,13,0,,,,,,,,,,,,,460.96689839998726,,,,,,,,460.95278230000986,465.95046439999714,465.95047139999224,465.9669587999815,477.95090399996843,1,inactive,42.6,477.95104879996506,484.0364299999783,63.499999999999844,6.066,477.98374200001126,,,,,,,,,,,,,,,,,,,,,,,,,,,,,,,,,,,,,,sub-046,42.6,41.8,43.5,COM3,2024-07-08_13h39.19.501,2024_RDpaindiscrimination_maintask,2023.2.3,60.01720094198867,2024-07-08 13h39.40.614623 -0400,
0,0,0,0,14,0,14,0,,,,,,,,,,,,,484.05046310002217,,,,,,,,484.0372345999931,489.0339798000059,489.03398740000557,489.0505129999947,501.03458410000894,2,active,41.8,501.03472399996826,506.35220560000744,52.49999999999996,5.299,501.06740300002275,,,,,,,,,,,,,,,,,,,,,,,,,,,,,,,,,,,,,,sub-046,42.6,41.8,43.5,COM3,2024-07-08_13h39.19.501,2024_RDpaindiscrimination_maintask,2023.2.3,60.01720094198867,2024-07-08 13h39.40.614623 -0400,
0,0,0,0,15,0,15,0,,,,,,,,,,,,,506.3674524999806,,,,,,,,506.3529818999814,511.3509514000034,511.35095749999164,511.36747840000317,523.3513991999789,3,active,41.8,523.3515394999995,527.6532904999913,24.999999999999993,4.283,523.3842057000147,,,,,,,,,,,,,,,,,,,,,,,,,,,,,,,,,,,,,,sub-046,42.6,41.8,43.5,COM3,2024-07-08_13h39.19.501,2024_RDpaindiscrimination_maintask,2023.2.3,60.01720094198867,2024-07-08 13h39.40.614623 -0400,
0,0,0,0,,,,,0,0,0,0,0,0,0,0,,,,,553.7012612000108,,,,,,553.1187007999979,553.6849524999852,,,,,,0,inactive,42.6,570.6853258999763,575.220198999974,57.49999999999994,4.516,,527.6539555999916,527.6677038000198,553.1183452999685,553.6852687000064,558.6849245000049,558.6849320000038,558.7013140000054,570.718208700011,570.6853166000219,,,,,,,,,,,,,,,,,,,,,,,,,,,,,sub-046,42.6,41.8,43.5,COM3,2024-07-08_13h39.19.501,2024_RDpaindiscrimination_maintask,2023.2.3,60.01720094198867,2024-07-08 13h39.40.614623 -0400,
0,0,0,0,,,,,0,0,0,0,1,0,1,0,,,,,575.2349239999894,,,,,,,,,,,,,1,active,42.6,592.2188918999746,597.3532745999983,53.00000000000006,5.116,,,,,575.2209480999736,580.2184294000035,580.2184370000032,580.2349417000078,592.2517040999955,592.2188836999703,,,,,,,,,,,,,,,,,,,,,,,,,,,,,sub-046,42.6,41.8,43.5,COM3,2024-07-08_13h39.19.501,2024_RDpaindiscrimination_maintask,2023.2.3,60.01720094198867,2024-07-08 13h39.40.614623 -0400,
0,0,0,0,,,,,0,0,0,0,,,,,0,0,0,0,599.768415700004,,,,,,,,,,,,,2,inactive,,,,,,,,,,,,,,,,597.3537888000137,599.7520971000195,599.7524140999885,604.7520640000002,604.7520719000022,604.76861129998,612.7519876000006,612.7519876000006,615.7187021999853,615.7520611999789,615.7520611999789,615.7355440999963,3.8,5.0,380,500,8,1.2,0.75,pic-present,1,m,1.24279019999085,None,,,,,sub-046,42.6,41.8,43.5,COM3,2024-07-08_13h39.19.501,2024_RDpaindiscrimination_maintask,2023.2.3,60.01720094198867,2024-07-08 13h39.40.614623 -0400,
0,0,0,0,,,,,0,0,0,0,,,,,1,0,1,0,615.7520611999789,,,,,,,,,,,,,3,active,,,,,,,,,,,,,,,,,,615.7361702999915,620.7356053999974,620.7356127999956,620.7520520999678,628.7354789999663,628.7354789999663,631.7021781000076,631.7355331999715,631.7355331999715,631.7190821999684,4.53,4.27,453,426,8,1.2,0.75,pic-absent,1,m,0.8712163000018336,None,,,,,sub-046,42.6,41.8,43.5,COM3,2024-07-08_13h39.19.501,2024_RDpaindiscrimination_maintask,2023.2.3,60.01720094198867,2024-07-08 13h39.40.614623 -0400,
0,0,0,0,,,,,0,0,0,0,,,,,2,0,2,0,631.7355331999715,,,,,,,,,,,,,0,inactive,,,,,,,,,,,,,,,,,,631.7195842000074,636.7191041000187,636.7191113000154,636.7355778000201,644.7190302999807,644.7190302999807,647.6857003999758,647.7190363999689,647.7190363999689,647.7025985000073,4.2,4.6,420,459,8,1.2,0.75,pic-absent,0,n,0.6920553999952972,None,,,,,sub-046,42.6,41.8,43.5,COM3,2024-07-08_13h39.19.501,2024_RDpaindiscrimination_maintask,2023.2.3,60.01720094198867,2024-07-08 13h39.40.614623 -0400,
0,0,0,0,,,,,0,0,0,0,,,,,3,0,3,0,647.7190363999689,,,,,,,,,,,,,1,active,,,,,,,,,,,,,,,,,,647.7030896000215,652.7025922000175,652.7025996000157,652.7190869000042,660.7025904000038,660.7025904000038,663.6692209999892,663.7026371000102,663.7026371000102,663.6860612999881,3.72,5.08,372,508,8,1.2,0.75,pic-present,1,m,0.41673729999456555,None,,,,,sub-046,42.6,41.8,43.5,COM3,2024-07-08_13h39.19.501,2024_RDpaindiscrimination_maintask,2023.2.3,60.01720094198867,2024-07-08 13h39.40.614623 -0400,
0,0,0,0,,,,,1,0,1,0,0,0,0,0,,,,,665.0525655999663,,,,,,663.6865697000176,665.0362444000202,,,,,,2,active,42.6,682.0364290999714,687.0718915999751,52.49999999999996,5.017,,,,,665.0365492000128,670.0361680000206,670.0361749000149,670.0526597999851,682.069542400015,682.0364203000208,,,,,,,,,,,,,,,,,,,,,,,,,,,,,sub-046,42.6,41.8,43.5,COM3,2024-07-08_13h39.19.501,2024_RDpaindiscrimination_maintask,2023.2.3,60.01720094198867,2024-07-08 13h39.40.614623 -0400,
0,0,0,0,,,,,1,0,1,0,1,0,1,0,,,,,687.086235499999,,,,,,,,,,,,,3,inactive,42.6,704.0700748999952,710.0064778999658,53.999999999999915,5.917,,,,,687.0723961999756,692.0697527999873,692.06976079999,692.0862172999769,704.1030590999871,704.0700667999918,,,,,,,,,,,,,,,,,,,,,,,,,,,,,sub-046,42.6,41.8,43.5,COM3,2024-07-08_13h39.19.501,2024_RDpaindiscrimination_maintask,2023.2.3,60.01720094198867,2024-07-08 13h39.40.614623 -0400,
0,0,0,0,,,,,1,0,1,0,,,,,0,0,0,0,711.8031607000157,,,,,,,,,,,,,0,inactive,,,,,,,,,,,,,,,,710.0070293999743,711.7867600999889,711.7870926000178,716.7867221999913,716.7867294999887,716.8032238999731,724.786652299983,724.786652299983,727.7533935999963,727.7866881999653,727.7866881999653,727.7702037999989,3.72,5.08,372,508,8,1.2,0.75,pic-absent,0,n,0.8646880000014789,None,,,,,sub-046,42.6,41.8,43.5,COM3,2024-07-08_13h39.19.501,2024_RDpaindiscrimination_maintask,2023.2.3,60.01720094198867,2024-07-08 13h39.40.614623 -0400,
0,0,0,0,,,,,1,0,1,0,,,,,1,0,1,0,727.7866881999653,,,,,,,,,,,,,1,active,,,,,,,,,,,,,,,,,,727.7707371999859,732.7702275000047,732.7702353000059,732.7867466000025,740.7701747000101,740.7701747000101,743.7368732999894,743.7702055000118,743.7702055000118,743.7536730999709,4.28,4.52,428,451,8,1.2,0.75,pic-present,1,m,0.4962946000159718,None,,,,,sub-046,42.6,41.8,43.5,COM3,2024-07-08_13h39.19.501,2024_RDpaindiscrimination_maintask,2023.2.3,60.01720094198867,2024-07-08 13h39.40.614623 -0400,
0,0,0,0,,,,,1,0,1,0,,,,,2,0,2,0,743.7702055000118,,,,,,,,,,,,,2,active,,,,,,,,,,,,,,,,,,743.7541462000227,748.753758899984,748.7537659999798,748.7702586000087,756.7536871000193,756.7536871000193,759.720421999984,759.7536623000051,759.7536623000051,759.7372294999659,3.78,5.02,378,501,8,1.2,0.75,pic-absent,1,m,0.7375413000117987,None,,,,,sub-046,42.6,41.8,43.5,COM3,2024-07-08_13h39.19.501,2024_RDpaindiscrimination_maintask,2023.2.3,60.01720094198867,2024-07-08 13h39.40.614623 -0400,
0,0,0,0,,,,,1,0,1,0,,,,,3,0,3,0,759.7536623000051,,,,,,,,,,,,,3,inactive,,,,,,,,,,,,,,,,,,759.7377142999903,764.7372782999882,764.7372855999856,764.7537519999896,772.7372101999936,772.7372101999936,775.7039108999888,775.7373042000108,775.7373042000108,775.723523099965,3.3,5.5,330,550,8,1.2,0.75,pic-present,1,m,0.789354500011541,None,,,,,sub-046,42.6,41.8,43.5,COM3,2024-07-08_13h39.19.501,2024_RDpaindiscrimination_maintask,2023.2.3,60.01720094198867,2024-07-08 13h39.40.614623 -0400,
0,0,0,0,,,,,2,0,2,0,0,0,0,0,,,,,776.7373038000078,,,,,,775.724040400004,776.7208484999719,,,,,,0,active,42.6,793.721170099976,798.6227668999927,64.99999999999984,4.883,,,,,776.7211524000159,781.7208153000101,781.7208223000052,781.7373221999733,793.7540480999742,793.721161799971,,,,,,,,,,,,,,,,,,,,,,,,,,,,,sub-046,42.6,41.8,43.5,COM3,2024-07-08_13h39.19.501,2024_RDpaindiscrimination_maintask,2023.2.3,60.01720094198867,2024-07-08 13h39.40.614623 -0400,
0,0,0,0,,,,,2,0,2,0,1,0,1,0,,,,,798.6375397999655,,,,,,,,,,,,,1,inactive,42.6,815.6215149000054,821.222815599991,68.99999999999997,5.583,,,,,798.6235477000009,803.6211037000176,803.6211103000096,803.6376098999754,815.6544661999797,815.6215067000012,,,,,,,,,,,,,,,,,,,,,,,,,,,,,sub-046,42.6,41.8,43.5,COM3,2024-07-08_13h39.19.501,2024_RDpaindiscrimination_maintask,2023.2.3,60.01720094198867,2024-07-08 13h39.40.614623 -0400,
0,0,0,0,,,,,2,0,2,0,,,,,0,0,0,0,821.6044739999925,,,,,,,,,,,,,2,active,,,,,,,,,,,,,,,,821.2233210999984,821.5880843999912,821.588413599995,826.5880604999838,826.588067899982,826.6044650999829,834.5879751999746,834.5879751999746,837.554735600017,837.5880057999748,837.5880057999748,837.5715113999904,4.39,4.41,438,441,8,1.2,0.75,pic-present,1,m,0.8311859000241384,None,,,,,sub-046,42.6,41.8,43.5,COM3,2024-07-08_13h39.19.501,2024_RDpaindiscrimination_maintask,2023.2.3,60.01720094198867,2024-07-08 13h39.40.614623 -0400,
0,0,0,0,,,,,2,0,2,0,,,,,1,0,1,0,837.5880057999748,,,,,,,,,,,,,3,inactive,,,,,,,,,,,,,,,,,,837.5720484000049,842.5716237999732,842.5716353000025,842.588022699987,850.5714878999861,850.5714878999861,853.5381894999882,853.571523200022,853.571523200022,853.5550443999819,4.61,4.19,461,419,8,1.2,0.75,pic-absent,0,n,1.307010699994862,None,,,,,sub-046,42.6,41.8,43.5,COM3,2024-07-08_13h39.19.501,2024_RDpaindiscrimination_maintask,2023.2.3,60.01720094198867,2024-07-08 13h39.40.614623 -0400,
0,0,0,0,,,,,2,0,2,0,,,,,2,0,2,0,853.571523200022,,,,,,,,,,,,,0,active,,,,,,,,,,,,,,,,,,853.5555036999867,858.5551113999682,858.555118899967,858.5715008999687,866.5550139999832,866.5550139999832,869.5217315999907,869.5550165000022,869.5550165000022,869.5385256999871,4.45,4.35,445,434,8,1.2,0.75,pic-present,1,m,0.7995856000343338,None,,,,,sub-046,42.6,41.8,43.5,COM3,2024-07-08_13h39.19.501,2024_RDpaindiscrimination_maintask,2023.2.3,60.01720094198867,2024-07-08 13h39.40.614623 -0400,
0,0,0,0,,,,,2,0,2,0,,,,,3,0,3,0,869.5550165000022,,,,,,,,,,,,,1,inactive,,,,,,,,,,,,,,,,,,869.5389954000129,874.538487199985,874.5384987000143,874.5549510999699,882.5383906000061,882.5383906000061,885.5050794999697,885.5384128000005,885.5384128000005,885.5219232999953,4.31,4.49,430,449,8,1.2,0.75,pic-absent,0,n,1.3729379000142217,None,,,,,sub-046,42.6,41.8,43.5,COM3,2024-07-08_13h39.19.501,2024_RDpaindiscrimination_maintask,2023.2.3,60.01720094198867,2024-07-08 13h39.40.614623 -0400,
0,0,0,0,,,,,3,0,3,0,0,0,0,0,,,,,886.6384301999933,,,,,,885.5224358999985,886.6220580000081,,,,,,2,inactive,42.6,903.6221157999826,910.4416883999947,48.99999999999991,6.8,,,,,886.6223814999685,891.6221540999832,891.6221615999821,891.6385267999722,,903.62210649997,,,,,,,,,,,,,,,,,,,,,,,,,,,,,sub-046,42.6,41.8,43.5,COM3,2024-07-08_13h39.19.501,2024_RDpaindiscrimination_maintask,2023.2.3,60.01720094198867,2024-07-08 13h39.40.614623 -0400,
0,0,0,0,,,,,3,0,3,0,1,0,1,0,,,,,910.4553801000002,,,,,,,,,,,,,3,active,42.6,927.4392974000075,931.3571608000202,38.99999999999997,3.899,,,,,910.4424936000141,915.4389548000181,915.4389668999938,915.4554329999955,927.4722382000182,927.4392884999979,,,,,,,,,,,,,,,,,,,,,,,,,,,,,sub-046,42.6,41.8,43.5,COM3,2024-07-08_13h39.19.501,2024_RDpaindiscrimination_maintask,2023.2.3,60.01720094198867,2024-07-08 13h39.40.614623 -0400,
0,0,0,0,,,,,3,0,3,0,,,,,0,0,0,0,932.1223577000201,,,,,,,,,,,,,0,active,,,,,,,,,,,,,,,,931.3577192999655,932.1059451000183,932.1062761999783,937.1059022999834,937.105909099977,937.1224092000048,945.1058520000079,945.1058520000079,948.0726569999824,948.1058861999772,948.1058861999772,948.0893909999868,3.98,4.82,398,482,8,1.2,0.75,pic-absent,0,n,0.4771694999653846,None,,,,,sub-046,42.6,41.8,43.5,COM3,2024-07-08_13h39.19.501,2024_RDpaindiscrimination_maintask,2023.2.3,60.01720094198867,2024-07-08 13h39.40.614623 -0400,
0,0,0,0,,,,,3,0,3,0,,,,,1,0,1,0,948.1058861999772,,,,,,,,,,,,,1,inactive,,,,,,,,,,,,,,,,,,948.0899484999827,953.0894395000068,953.0894468000042,953.1059424999985,961.0894348999718,961.0894348999718,964.0560686999816,964.0894069999922,964.0894069999922,964.0729399999836,3.55,5.25,355,525,8,1.2,0.75,pic-present,1,m,0.5335810999968089,None,,,,,sub-046,42.6,41.8,43.5,COM3,2024-07-08_13h39.19.501,2024_RDpaindiscrimination_maintask,2023.2.3,60.01720094198867,2024-07-08 13h39.40.614623 -0400,
0,0,0,0,,,,,3,0,3,0,,,,,2,0,2,0,964.0894069999922,,,,,,,,,,,,,2,inactive,,,,,,,,,,,,,,,,,,964.0734326000093,969.072953099967,969.0729603000218,969.0894663999788,977.0729690999724,977.0729690999724,980.0396443000063,980.072929899965,980.072929899965,980.0564488999662,3.73,5.07,373,507,8,1.2,0.75,pic-present,1,m,1.1981335999444127,None,,,,,sub-046,42.6,41.8,43.5,COM3,2024-07-08_13h39.19.501,2024_RDpaindiscrimination_maintask,2023.2.3,60.01720094198867,2024-07-08 13h39.40.614623 -0400,
0,0,0,0,,,,,3,0,3,0,,,,,3,0,3,0,980.072929899965,,,,,,,,,,,,,3,active,,,,,,,,,,,,,,,,,,980.056894999987,985.0564421999734,985.056449799973,985.0729512000107,993.0563708000118,993.0563708000118,996.0231229999918,996.0564093000139,996.0564093000139,996.0400733000133,3.33,5.47,333,547,8,1.2,0.75,pic-absent,0,n,0.9709149000118487,None,,,,,sub-046,42.6,41.8,43.5,COM3,2024-07-08_13h39.19.501,2024_RDpaindiscrimination_maintask,2023.2.3,60.01720094198867,2024-07-08 13h39.40.614623 -0400,
1,0,1,0,0,0,0,0,,,,,,,,,,,,,1061.4572402000194,,,,1057.474381499982,1060.624115500017,1060.6241237000213,1061.4408103000023,1061.441111699969,1066.4408392999903,1066.4408462999854,1066.4573543000151,1078.4408542999881,0,inactive,42.6,1078.4411149999942,1081.7260929999757,65.50000000000001,3.262,,,,,,,,,,,,,,,,,,,,,,,,,,,,,,,,,,,996.040554200008,1057.4742573999683,,,sub-046,42.6,41.8,43.5,COM3,2024-07-08_13h39.19.501,2024_RDpaindiscrimination_maintask,2023.2.3,60.01720094198867,2024-07-08 13h39.40.614623 -0400,
1,0,1,0,1,0,1,0,,,,,,,,,,,,,1081.7408792999922,,,,,,,,1081.7270078000147,1086.7243802999728,1086.7243870999664,1086.7408400999848,1098.7248593000113,1,active,41.8,1098.7250065999688,1104.5939238999854,43.50000000000009,5.85,1098.7577631999739,,,,,,,,,,,,,,,,,,,,,,,,,,,,,,,,,,,,,,sub-046,42.6,41.8,43.5,COM3,2024-07-08_13h39.19.501,2024_RDpaindiscrimination_maintask,2023.2.3,60.01720094198867,2024-07-08 13h39.40.614623 -0400,
1,0,1,0,2,0,2,0,,,,,,,,,,,,,1104.6077212999808,,,,,,,,1104.5947088999674,1109.5912768999697,1109.59128350002,1109.6078419999685,1121.591724900005,2,inactive,42.6,1121.5918674999848,1125.277608399978,57.99999999999997,3.667,1121.6245716999983,,,,,,,,,,,,,,,,,,,,,,,,,,,,,,,,,,,,,,sub-046,42.6,41.8,43.5,COM3,2024-07-08_13h39.19.501,2024_RDpaindiscrimination_maintask,2023.2.3,60.01720094198867,2024-07-08 13h39.40.614623 -0400,
1,0,1,0,3,0,3,0,,,,,,,,,,,,,1125.2912885000114,,,,,,,,1125.2783701000153,1130.2748545000213,1130.2748607000103,1130.291349200008,1142.2754050000221,3,active,41.8,1142.2755440999754,1148.7774444000097,58.49999999999987,6.483,1142.3081552999793,,,,,,,,,,,,,,,,,,,,,,,,,,,,,,,,,,,,,,sub-046,42.6,41.8,43.5,COM3,2024-07-08_13h39.19.501,2024_RDpaindiscrimination_maintask,2023.2.3,60.01720094198867,2024-07-08 13h39.40.614623 -0400,
1,0,1,0,4,0,4,0,,,,,,,,,,,,,1148.7915727000218,,,,,,,,1148.7782502999762,1153.775143900013,1153.7751508000074,1153.7916290999856,1165.775569599995,0,inactive,42.6,1165.7757128999801,1171.9781474000192,29.999999999999964,6.184,1165.8084303999785,,,,,,,,,,,,,,,,,,,,,,,,,,,,,,,,,,,,,,sub-046,42.6,41.8,43.5,COM3,2024-07-08_13h39.19.501,2024_RDpaindiscrimination_maintask,2023.2.3,60.01720094198867,2024-07-08 13h39.40.614623 -0400,
1,0,1,0,5,0,5,0,,,,,,,,,,,,,1171.9918428999954,,,,,,,,1171.978997499973,1176.9753891999717,1176.9753959999653,1176.991868000012,1188.975858699996,1,active,41.8,1188.9759973000037,1193.361331299995,39.999999999999964,4.367,1189.0086827999912,,,,,,,,,,,,,,,,,,,,,,,,,,,,,,,,,,,,,,sub-046,42.6,41.8,43.5,COM3,2024-07-08_13h39.19.501,2024_RDpaindiscrimination_maintask,2023.2.3,60.01720094198867,2024-07-08 13h39.40.614623 -0400,
1,0,1,0,6,0,6,0,,,,,,,,,,,,,1193.3754138000077,,,,,,,,1193.362115899974,1198.3589410000131,1198.358947700006,1198.3754940999788,1210.3593624000205,2,inactive,42.6,1210.3595090999734,1214.1780272999895,42.99999999999993,3.8,1210.3922440999886,,,,,,,,,,,,,,,,,,,,,,,,,,,,,,,,,,,,,,sub-046,42.6,41.8,43.5,COM3,2024-07-08_13h39.19.501,2024_RDpaindiscrimination_maintask,2023.2.3,60.01720094198867,2024-07-08 13h39.40.614623 -0400,
1,0,1,0,7,0,7,0,,,,,,,,,,,,,1214.1923051999765,,,,,,,,1214.1788661999744,1219.1758744000108,1219.1758819000097,1219.1923506999738,1231.1763944000122,3,inactive,42.6,1231.1765469000093,1236.8781573000015,49.99999999999997,5.682,1231.209262199991,,,,,,,,,,,,,,,,,,,,,,,,,,,,,,,,,,,,,,sub-046,42.6,41.8,43.5,COM3,2024-07-08_13h39.19.501,2024_RDpaindiscrimination_maintask,2023.2.3,60.01720094198867,2024-07-08 13h39.40.614623 -0400,
1,0,1,0,8,0,8,0,,,,,,,,,,,,,1236.8925782999722,,,,,,,,1236.8789319000207,1241.8761171000078,1241.8761242000037,1241.8926205000025,1253.8765765000135,0,active,41.8,1253.8767170999781,1259.0617909000139,12.499999999999993,5.166,1253.9094319000142,,,,,,,,,,,,,,,,,,,,,,,,,,,,,,,,,,,,,,sub-046,42.6,41.8,43.5,COM3,2024-07-08_13h39.19.501,2024_RDpaindiscrimination_maintask,2023.2.3,60.01720094198867,2024-07-08 13h39.40.614623 -0400,
1,0,1,0,9,0,9,0,,,,,,,,,,,,,1259.0762001000112,,,,,,,,1259.0626470000134,1264.0598340000142,1264.0598414000124,1264.0762392000179,1276.0602833000012,1,inactive,42.6,1276.0604292000062,1280.2790159999859,62.99999999999996,4.2,1276.093133700022,,,,,,,,,,,,,,,,,,,,,,,,,,,,,,,,,,,,,,sub-046,42.6,41.8,43.5,COM3,2024-07-08_13h39.19.501,2024_RDpaindiscrimination_maintask,2023.2.3,60.01720094198867,2024-07-08 13h39.40.614623 -0400,
1,0,1,0,10,0,10,0,,,,,,,,,,,,,1280.2932085000211,,,,,,,,1280.2797792999772,1285.276747099997,1285.276754099992,1285.2932402999722,1297.277210499975,2,active,41.8,1297.2773499999894,1302.2293075000052,44.00000000000006,4.933,1297.3100522999885,,,,,,,,,,,,,,,,,,,,,,,,,,,,,,,,,,,,,,sub-046,42.6,41.8,43.5,COM3,2024-07-08_13h39.19.501,2024_RDpaindiscrimination_maintask,2023.2.3,60.01720094198867,2024-07-08 13h39.40.614623 -0400,
1,0,1,0,11,0,11,0,,,,,,,,,,,,,1302.2434595999657,,,,,,,,1302.2300894000218,1307.2269890999887,1307.2269958999823,1307.243507199979,1319.2274408999947,3,inactive,42.6,1319.2275818000198,1326.1454919999815,58.499999999999865,6.899,1319.2603221000172,,,,,,,,,,,,,,,,,,,,,,,,,,,,,,,,,,,,,,sub-046,42.6,41.8,43.5,COM3,2024-07-08_13h39.19.501,2024_RDpaindiscrimination_maintask,2023.2.3,60.01720094198867,2024-07-08 13h39.40.614623 -0400,
1,0,1,0,12,0,12,0,,,,,,,,,,,,,1326.1604030000162,,,,,,,,1326.1463113999926,1331.1439699999755,1331.1439766999683,1331.160449899966,1343.1444068999845,0,active,41.8,1343.1445479000104,1350.211902400013,46.99999999999997,7.048,1343.1773299999768,,,,,,,,,,,,,,,,,,,,,,,,,,,,,,,,,,,,,,sub-046,42.6,41.8,43.5,COM3,2024-07-08_13h39.19.501,2024_RDpaindiscrimination_maintask,2023.2.3,60.01720094198867,2024-07-08 13h39.40.614623 -0400,
1,0,1,0,13,0,13,0,,,,,,,,,,,,,1350.227236900013,,,,,,,,1350.21267909999,1355.210857899976,1355.210865299974,1355.2273366000154,1367.2114768999745,1,inactive,42.6,1367.211623399984,1374.695911799965,64.49999999999987,7.465,1367.244227999996,,,,,,,,,,,,,,,,,,,,,,,,,,,,,,,,,,,,,,sub-046,42.6,41.8,43.5,COM3,2024-07-08_13h39.19.501,2024_RDpaindiscrimination_maintask,2023.2.3,60.01720094198867,2024-07-08 13h39.40.614623 -0400,
1,0,1,0,14,0,14,0,,,,,,,,,,,,,1374.711048499972,,,,,,,,1374.6966558999848,1379.697286300012,1379.6972928000032,1379.7109227000037,1391.6948486000183,2,active,41.8,1391.6949919000035,1397.163640499988,29.00000000000005,5.45,1391.7278208999778,,,,,,,,,,,,,,,,,,,,,,,,,,,,,,,,,,,,,,sub-046,42.6,41.8,43.5,COM3,2024-07-08_13h39.19.501,2024_RDpaindiscrimination_maintask,2023.2.3,60.01720094198867,2024-07-08 13h39.40.614623 -0400,
1,0,1,0,15,0,15,0,,,,,,,,,,,,,1397.1778726999764,,,,,,,,1397.1643909999984,1402.1614967000205,1402.1615029000095,1402.1780736999935,1414.1619582999847,3,active,41.8,1414.1620995000121,1418.363133499981,23.499999999999996,4.182,1414.194737999991,,,,,,,,,,,,,,,,,,,,,,,,,,,,,,,,,,,,,,sub-046,42.6,41.8,43.5,COM3,2024-07-08_13h39.19.501,2024_RDpaindiscrimination_maintask,2023.2.3,60.01720094198867,2024-07-08 13h39.40.614623 -0400,
1,0,1,0,,,,,0,0,0,0,0,0,0,0,,,,,1437.2615876999917,,,,,,1436.4121490999823,1437.2451953999698,,,,,,0,active,42.6,1454.2455858999747,1458.9803456999944,18.500000000000213,4.716,,1418.3637135999743,1418.3780366000137,1436.4118332000216,1437.245504999999,1442.245202399965,1442.2452100999653,1442.2616509000072,1454.278446900018,1454.2455769000226,,,,,,,,,,,,,,,,,,,,,,,,,,,,,sub-046,42.6,41.8,43.5,COM3,2024-07-08_13h39.19.501,2024_RDpaindiscrimination_maintask,2023.2.3,60.01720094198867,2024-07-08 13h39.40.614623 -0400,
1,0,1,0,,,,,0,0,0,0,1,0,1,0,,,,,1458.9951782000135,,,,,,,,,,,,,1,inactive,42.6,1475.9792269999743,1481.6983108000131,52.49999999999992,5.701,,,,,1458.9811609999742,1463.9787504000124,1463.9787571000052,1463.995232999965,1476.0120822999743,1475.9792186999694,,,,,,,,,,,,,,,,,,,,,,,,,,,,,sub-046,42.6,41.8,43.5,COM3,2024-07-08_13h39.19.501,2024_RDpaindiscrimination_maintask,2023.2.3,60.01720094198867,2024-07-08 13h39.40.614623 -0400,
1,0,1,0,,,,,0,0,0,0,,,,,0,0,0,0,1482.3622309999773,,,,,,,,,,,,,2,inactive,,,,,,,,,,,,,,,,1481.6988088000217,1482.3457368999952,1482.346036700008,1487.345677800011,1487.3456853000098,1487.362213800021,1495.345643699984,1495.345643699984,1498.312340900011,1498.3456838999991,1498.3456838999991,1498.3292370999698,4.66,4.14,466,413,8,1.2,0.75,pic-present,1,m,1.0176100000389852,None,,,,,sub-046,42.6,41.8,43.5,COM3,2024-07-08_13h39.19.501,2024_RDpaindiscrimination_maintask,2023.2.3,60.01720094198867,2024-07-08 13h39.40.614623 -0400,
1,0,1,0,,,,,0,0,0,0,,,,,1,0,1,0,1498.3456838999991,,,,,,,,,,,,,3,inactive,,,,,,,,,,,,,,,,,,1498.3298106999719,1503.3292270000093,1503.3292344000074,1503.3458011000184,1511.329196400009,1511.329196400009,1514.295820200001,1514.3291972000152,1514.3291972000152,1514.3127166000195,3.59,5.21,359,521,8,1.2,0.75,pic-present,0,n,1.8223691000021063,None,,,,,sub-046,42.6,41.8,43.5,COM3,2024-07-08_13h39.19.501,2024_RDpaindiscrimination_maintask,2023.2.3,60.01720094198867,2024-07-08 13h39.40.614623 -0400,
1,0,1,0,,,,,0,0,0,0,,,,,2,0,2,0,1514.3291972000152,,,,,,,,,,,,,0,active,,,,,,,,,,,,,,,,,,1514.3131948999944,1519.312804599991,1519.3128121999907,1519.3292200000142,1527.3127275999868,1527.3127275999868,1530.2794197999756,1530.31271139998,1530.31271139998,1530.2962690999848,3.48,5.32,348,532,8,1.2,0.75,pic-absent,0,n,1.738691100035794,None,,,,,sub-046,42.6,41.8,43.5,COM3,2024-07-08_13h39.19.501,2024_RDpaindiscrimination_maintask,2023.2.3,60.01720094198867,2024-07-08 13h39.40.614623 -0400,
1,0,1,0,,,,,0,0,0,0,,,,,3,0,3,0,1530.31271139998,,,,,,,,,,,,,1,inactive,,,,,,,,,,,,,,,,,,1530.2967910000007,1535.29632829997,1535.296336999978,1535.312741199974,1543.2961709999945,1543.2961709999945,1546.2628910000203,1546.2962128000217,1546.2962128000217,1546.2797165999655,4.62,4.18,462,418,8,1.2,0.75,pic-present,1,m,2.40659929998219,None,,,,,sub-046,42.6,41.8,43.5,COM3,2024-07-08_13h39.19.501,2024_RDpaindiscrimination_maintask,2023.2.3,60.01720094198867,2024-07-08 13h39.40.614623 -0400,
1,0,1,0,,,,,1,0,1,0,0,0,0,0,,,,,1642.9807807999896,,,,,,1546.2802637999994,1642.96462470002,,,,,,2,inactive,42.6,1659.9647418999812,1663.832316200016,48.99999999999991,3.849,,,,,1642.9649441000074,1647.9642614999902,1647.9642680999823,1647.9807931999676,1659.9976222999976,1659.9647333999746,,,,,,,,,,,,,,,,,,,,,,,,,,,,,sub-046,42.6,41.8,43.5,COM3,2024-07-08_13h39.19.501,2024_RDpaindiscrimination_maintask,2023.2.3,60.01720094198867,2024-07-08 13h39.40.614623 -0400,
1,0,1,0,,,,,1,0,1,0,1,0,1,0,,,,,1663.8476225999766,,,,,,,,,,,,,3,active,42.6,1680.8315668000141,1684.167115899967,53.49999999999995,3.317,,,,,1663.8330511999666,1668.8312217000057,1668.8312284999993,1668.8476886000135,1680.8644923999673,1680.831557700003,,,,,,,,,,,,,,,,,,,,,,,,,,,,,sub-046,42.6,41.8,43.5,COM3,2024-07-08_13h39.19.501,2024_RDpaindiscrimination_maintask,2023.2.3,60.01720094198867,2024-07-08 13h39.40.614623 -0400,
1,0,1,0,,,,,1,0,1,0,,,,,0,0,0,0,1685.464586200018,,,,,,,,,,,,,0,active,,,,,,,,,,,,,,,,1684.1676746999728,1685.448123899987,1685.4484379999922,1690.4480947999982,1690.4481021999964,1690.4646012000157,1698.4480264000013,1698.4480264000013,1701.414728600008,1701.4481085999869,1701.4481085999869,1701.4316815999919,3.77,5.03,377,503,8,1.2,0.75,pic-absent,0,n,1.0431386000127532,None,,,,,sub-046,42.6,41.8,43.5,COM3,2024-07-08_13h39.19.501,2024_RDpaindiscrimination_maintask,2023.2.3,60.01720094198867,2024-07-08 13h39.40.614623 -0400,
1,0,1,0,,,,,1,0,1,0,,,,,1,0,1,0,1701.4481085999869,,,,,,,,,,,,,1,active,,,,,,,,,,,,,,,,,,1701.4322013999918,1706.4316256999737,1706.4316337999771,1706.4481852999888,1714.4315470000147,1714.4315470000147,1717.398255600012,1717.431589099986,1717.431589099986,1717.415147199994,4.12,4.68,412,468,8,1.2,0.75,pic-present,1,m,0.8155354000045918,None,,,,,sub-046,42.6,41.8,43.5,COM3,2024-07-08_13h39.19.501,2024_RDpaindiscrimination_maintask,2023.2.3,60.01720094198867,2024-07-08 13h39.40.614623 -0400,
1,0,1,0,,,,,1,0,1,0,,,,,2,0,2,0,1717.431589099986,,,,,,,,,,,,,2,inactive,,,,,,,,,,,,,,,,,,1717.415639200015,1722.4151755999774,1722.4151828999748,1722.4316424999852,1730.4150716000004,1730.4150716000004,1733.3817781999824,1733.4151083999895,1733.4151083999895,1733.3986611000146,3.49,5.31,349,531,8,1.2,0.75,pic-absent,0,n,0.8719418999971822,None,,,,,sub-046,42.6,41.8,43.5,COM3,2024-07-08_13h39.19.501,2024_RDpaindiscrimination_maintask,2023.2.3,60.01720094198867,2024-07-08 13h39.40.614623 -0400,
1,0,1,0,,,,,1,0,1,0,,,,,3,0,3,0,1733.4151083999895,,,,,,,,,,,,,3,active,,,,,,,,,,,,,,,,,,1733.399157900014,1738.3986778999679,1738.398685299966,1738.4151726000127,1746.3986545000225,1746.3986545000225,1749.3652608999982,1749.3987030999851,1749.3987030999851,1749.3821909999824,3.68,5.12,368,512,8,1.2,0.75,pic-present,1,m,0.6443321999977343,None,,,,,sub-046,42.6,41.8,43.5,COM3,2024-07-08_13h39.19.501,2024_RDpaindiscrimination_maintask,2023.2.3,60.01720094198867,2024-07-08 13h39.40.614623 -0400,
1,0,1,0,,,,,2,0,2,0,0,0,0,0,,,,,1760.1154657999869,,,,,,1749.3826761000091,1760.0990140999784,,,,,,0,active,42.6,1777.0993323000148,1782.6672451000195,64.99999999999984,5.549,,,,,1760.0993394000106,1765.0989508000202,1765.0989580000169,1765.115401500021,1777.1323706000112,1777.0993229000014,,,,,,,,,,,,,,,,,,,,,,,,,,,,,sub-046,42.6,41.8,43.5,COM3,2024-07-08_13h39.19.501,2024_RDpaindiscrimination_maintask,2023.2.3,60.01720094198867,2024-07-08 13h39.40.614623 -0400,
1,0,1,0,,,,,2,0,2,0,1,0,1,0,,,,,1782.6823763999855,,,,,,,,,,,,,1,inactive,42.6,1799.6662771999836,1802.6852964999853,38.49999999999994,3.001,,,,,1782.6679516999866,1787.6658596000052,1787.6658666000003,1787.6823786000023,1799.6992703999858,1799.6662694999832,,,,,,,,,,,,,,,,,,,,,,,,,,,,,sub-046,42.6,41.8,43.5,COM3,2024-07-08_13h39.19.501,2024_RDpaindiscrimination_maintask,2023.2.3,60.01720094198867,2024-07-08 13h39.40.614623 -0400,
1,0,1,0,,,,,2,0,2,0,,,,,0,0,0,0,1804.3659057000186,,,,,,,,,,,,,2,inactive,,,,,,,,,,,,,,,,1802.6858577000094,1804.349506300001,1804.3498395999777,1809.349451999995,1809.349458599987,1809.3659563999972,1817.3493999000057,1817.3493999000057,1820.3160797000164,1820.3494798999745,1820.3494798999745,1820.3329315999872,3.98,4.82,398,482,8,1.2,0.75,pic-absent,1,m,1.0733984999824315,None,,,,,sub-046,42.6,41.8,43.5,COM3,2024-07-08_13h39.19.501,2024_RDpaindiscrimination_maintask,2023.2.3,60.01720094198867,2024-07-08 13h39.40.614623 -0400,
1,0,1,0,,,,,2,0,2,0,,,,,1,0,1,0,1820.3494798999745,,,,,,,,,,,,,3,active,,,,,,,,,,,,,,,,,,1820.333435699984,1825.3329690999817,1825.332976399979,1825.3494815999875,1833.3329787999974,1833.3329787999974,1836.2996471999795,1836.332992199983,1836.332992199983,1836.3165316999657,3.27,5.53,327,553,8,1.2,0.75,pic-absent,0,n,0.8457333000260405,None,,,,,sub-046,42.6,41.8,43.5,COM3,2024-07-08_13h39.19.501,2024_RDpaindiscrimination_maintask,2023.2.3,60.01720094198867,2024-07-08 13h39.40.614623 -0400,
1,0,1,0,,,,,2,0,2,0,,,,,2,0,2,0,1836.332992199983,,,,,,,,,,,,,0,active,,,,,,,,,,,,,,,,,,1836.3170331000001,1841.3165260999813,1841.3165329999756,1841.333026200009,1849.3164856000221,1849.3164856000221,1852.2831618000055,1852.316586699977,1852.316586699977,1852.300013799977,3.95,4.85,395,484,8,1.2,0.75,pic-present,1,m,0.4782150999526493,None,,,,,sub-046,42.6,41.8,43.5,COM3,2024-07-08_13h39.19.501,2024_RDpaindiscrimination_maintask,2023.2.3,60.01720094198867,2024-07-08 13h39.40.614623 -0400,
1,0,1,0,,,,,2,0,2,0,,,,,3,0,3,0,1852.316586699977,,,,,,,,,,,,,1,inactive,,,,,,,,,,,,,,,,,,1852.300525299972,1857.3000490000122,1857.300055700005,1857.3165741999983,1865.3001295999857,1865.3001295999857,1868.2666878000018,1868.3000273000216,1868.3000273000216,1868.283536300005,4.38,4.42,438,442,8,1.2,0.75,pic-absent,0,n,0.766518399992492,None,,,,,sub-046,42.6,41.8,43.5,COM3,2024-07-08_13h39.19.501,2024_RDpaindiscrimination_maintask,2023.2.3,60.01720094198867,2024-07-08 13h39.40.614623 -0400,
1,0,1,0,,,,,3,0,3,0,0,0,0,0,,,,,1869.3000291999779,,,,,,1868.2840648000129,1869.283653899969,,,,,,2,inactive,42.6,1886.2839189000078,1889.1849495000206,44.499999999999986,2.882,,,,,1869.2839643000043,1874.2835703999735,1874.283577699971,1874.3000915999874,1886.316896000004,1886.2839094999945,,,,,,,,,,,,,,,,,,,,,,,,,,,,,sub-046,42.6,41.8,43.5,COM3,2024-07-08_13h39.19.501,2024_RDpaindiscrimination_maintask,2023.2.3,60.01720094198867,2024-07-08 13h39.40.614623 -0400,
1,0,1,0,,,,,3,0,3,0,1,0,1,0,,,,,1889.2002801999915,,,,,,,,,,,,,3,active,42.6,1906.1842585999984,1919.3186178000178,43.00000000000013,13.116,,,,,1889.1857391999802,1894.1837735999725,1894.1837802999653,1894.200346699974,1906.2170919000055,1906.1842505999957,,,,,,,,,,,,,,,,,,,,,,,,,,,,,sub-046,42.6,41.8,43.5,COM3,2024-07-08_13h39.19.501,2024_RDpaindiscrimination_maintask,2023.2.3,60.01720094198867,2024-07-08 13h39.40.614623 -0400,
1,0,1,0,,,,,3,0,3,0,,,,,0,0,0,0,1920.500592199969,,,,,,,,,,,,,0,active,,,,,,,,,,,,,,,,1919.3191268999944,1920.4842051999876,1920.484517999983,1925.4842500999803,1925.484257299977,1925.5006542999763,1933.484076599998,1933.484076599998,1936.4507812999655,1936.4841451999964,1936.4841451999964,1936.4676303999731,3.75,5.05,375,505,8,1.2,0.75,pic-present,1,m,0.5915090999915265,None,,,,,sub-046,42.6,41.8,43.5,COM3,2024-07-08_13h39.19.501,2024_RDpaindiscrimination_maintask,2023.2.3,60.01720094198867,2024-07-08 13h39.40.614623 -0400,
1,0,1,0,,,,,3,0,3,0,,,,,1,0,1,0,1936.4841451999964,,,,,,,,,,,,,1,inactive,,,,,,,,,,,,,,,,,,1936.4681989999954,1941.4677749999682,1941.4677822999656,1941.4841706000152,1949.4675973000121,1949.4675973000121,1952.4343306000228,1952.4676592000178,1952.4676592000178,1952.451178999967,3.83,4.97,383,497,8,1.2,0.75,pic-absent,0,n,0.8791325999773107,None,,,,,sub-046,42.6,41.8,43.5,COM3,2024-07-08_13h39.19.501,2024_RDpaindiscrimination_maintask,2023.2.3,60.01720094198867,2024-07-08 13h39.40.614623 -0400,
1,0,1,0,,,,,3,0,3,0,,,,,2,0,2,0,1952.4676592000178,,,,,,,,,,,,,2,inactive,,,,,,,,,,,,,,,,,,1952.4516648999997,1957.451306300005,1957.4513140000054,1957.4677248999942,1965.4512363999966,1965.4512363999966,1968.4179360999842,1968.4512877999805,1968.4512877999805,1968.4348269000184,3.48,5.32,348,532,8,1.2,0.75,pic-present,1,m,0.467972100013867,None,,,,,sub-046,42.6,41.8,43.5,COM3,2024-07-08_13h39.19.501,2024_RDpaindiscrimination_maintask,2023.2.3,60.01720094198867,2024-07-08 13h39.40.614623 -0400,
1,0,1,0,,,,,3,0,3,0,,,,,3,0,3,0,1968.4512877999805,,,,,,,,,,,,,3,active,,,,,,,,,,,,,,,,,,1968.435299500008,1973.4347884000163,1973.4347961000167,1973.4512753000017,1981.4347182000056,1981.4347182000056,1984.4014532999718,1984.434751099965,1984.434751099965,1984.4182724999846,4.43,4.37,443,437,8,1.2,0.75,pic-absent,1,m,0.4761583000072278,None,,,,,sub-046,42.6,41.8,43.5,COM3,2024-07-08_13h39.19.501,2024_RDpaindiscrimination_maintask,2023.2.3,60.01720094198867,2024-07-08 13h39.40.614623 -0400,
,,,,,,,,,,,,,,,,,,,,,,,,,,,,,,,,,,,,,,,,,,,,,,,,,,,,,,,,,,,,,,,,,,,,,,,,,,1984.4186910999706,1987.8850664999918,1987.8850863999687,1997.8850661999895,,,,,,,,,,,
