trials.thisRepN,trials.thisTrialN,trials.thisN,trials.thisIndex,thisRow.t,notes,trial.started,trial.stopped,wait.started,wait.stopped,triggerrrs.started,thermode_locali_pic.started,percu_or.started,responser.started,thermode_locali_pic.stopped,percu_or.stopped,responser.stopped,triggerrrs.stopped,dur_plateau1,dur_plateau2,dur_plateau1_sent,dur_plateau2_sent,start_plateau_2_resp,start_detect_cue,dur_pic,dur_rise,temp_plateau_sent,loca_thermode,pic_sent,quest_intens,pic_response,discrimin_resp.keys,discrimin_resp.rt,discrimin_resp.duration,Cali_fin.started,text.started,text.stopped,Cali_fin.stopped,mean_6_reversals,pic_a_utiliser,threshold,participant,com_thermode,temp_plateau,date,expName,psychopyVersion,frameRate,expStart,
0,0,0,0,84.11998909991235,,0.0025231000036001205,84.10368399997242,84.10403829999268,89.10356070008129,89.10356740001589,89.12012029998004,97.10349000012502,97.10349000012502,99.32017530011944,100.1035084000323,100.1035084000323,100.08705540001392,4.26,4.54,426,454,8,3,1.2,0.75,469,0,477,0.8,1,m,1.8348892000503838,None,,,,,,,,sub-032,COM3,46.9,2024-02-26_09h28.48.393,2024_RDpaindiscrimination_QUEST,2023.2.3,60.017308983971496,2024-02-26 09h29.08.788180 -0500,
1,0,1,0,100.1035084000323,,,,100.0882451001089,105.08705440000631,105.08706069993787,105.10358739993535,113.10367460013367,113.10367460013367,115.30371100013144,116.10375040001236,116.10375040001236,116.08725260011852,3.84,4.96,384,496,8,3,1.2,0.75,469,1,473,0.4,1,m,1.2189543000422418,None,,,,,,,,sub-032,COM3,46.9,2024-02-26_09h28.48.393,2024_RDpaindiscrimination_QUEST,2023.2.3,60.017308983971496,2024-02-26 09h29.08.788180 -0500,
2,0,2,0,116.10375040001236,,,,116.08822209993377,121.08728510001674,121.08729179995134,121.10380499996245,129.08721240004525,129.08721240004525,131.30390920001082,132.0872357999906,132.0872357999906,132.07076089992188,3.62,5.18,362,518,8,3,1.2,0.75,469,2,472,0.3,0,n,1.3721078999806195,None,,,,,,,,sub-032,COM3,46.9,2024-02-26_09h28.48.393,2024_RDpaindiscrimination_QUEST,2023.2.3,60.017308983971496,2024-02-26 09h29.08.788180 -0500,
3,0,3,0,132.0872357999906,,,,132.07166479993612,137.07081830012612,137.07082420005463,137.08730080001988,145.07070869999006,145.07070869999006,147.28735419991426,148.07074390002526,148.07074390002526,148.05425300006755,4.5,4.3,450,430,8,3,1.2,0.75,469,3,475,0.6,1,m,1.5233483000192791,None,,,,,,,,sub-032,COM3,46.9,2024-02-26_09h28.48.393,2024_RDpaindiscrimination_QUEST,2023.2.3,60.017308983971496,2024-02-26 09h29.08.788180 -0500,
4,0,4,0,148.07074390002526,,,,148.0552028999664,153.0542830999475,153.05428920011036,153.070760600036,161.05420930008404,161.05420930008404,163.27089009992778,164.05423659994267,164.05423659994267,164.0377108999528,3.31,5.49,331,549,8,3,1.2,0.75,469,0,475,0.6,1,m,1.252761600073427,None,,,,,,,,sub-032,COM3,46.9,2024-02-26_09h28.48.393,2024_RDpaindiscrimination_QUEST,2023.2.3,60.017308983971496,2024-02-26 09h29.08.788180 -0500,
5,0,5,0,164.05423659994267,,,,164.03862460004166,169.03777420008555,169.03778060013428,169.0542586001102,177.03769890009426,177.03769890009426,179.25438140006736,180.0377442999743,180.0377442999743,180.02119110012427,4.61,4.19,461,419,8,3,1.2,0.75,469,1,473,0.39999999999999997,1,m,1.4011495998129249,None,,,,,,,,sub-032,COM3,46.9,2024-02-26_09h28.48.393,2024_RDpaindiscrimination_QUEST,2023.2.3,60.017308983971496,2024-02-26 09h29.08.788180 -0500,
6,0,6,0,180.0377442999743,,,,180.0220896000974,185.02128320001066,185.02128920005634,185.037760599982,193.0211905001197,193.0211905001197,195.23786820005625,196.02119210013188,196.02119210013188,196.0046946001239,4.02,4.78,401,478,8,3,1.2,0.75,469,2,473,0.39999999999999997,0,n,1.4104657999705523,None,,,,,,,,sub-032,COM3,46.9,2024-02-26_09h28.48.393,2024_RDpaindiscrimination_QUEST,2023.2.3,60.017308983971496,2024-02-26 09h29.08.788180 -0500,
7,0,7,0,196.02119210013188,,,,196.0056374000851,201.00472740014084,201.00473390007392,201.0212121999357,209.00464330008253,209.00464330008253,211.2213324001059,212.00469340011477,212.00469340011477,211.9881972000003,3.6,5.2,360,520,8,3,1.2,0.75,469,3,474,0.5,1,m,1.3265136999543756,None,,,,,,,,sub-032,COM3,46.9,2024-02-26_09h28.48.393,2024_RDpaindiscrimination_QUEST,2023.2.3,60.017308983971496,2024-02-26 09h29.08.788180 -0500,
8,0,8,0,212.00469340011477,,,,211.989138700068,216.98822519998066,216.98823120002635,217.00472240010276,224.9881343001034,224.9881343001034,227.2048243000172,227.9881633000914,227.9881633000914,227.97170120012015,4.11,4.69,411,469,8,3,1.2,0.75,469,0,474,0.5,1,m,1.2911727000027895,None,,,,,,,,sub-032,COM3,46.9,2024-02-26_09h28.48.393,2024_RDpaindiscrimination_QUEST,2023.2.3,60.017308983971496,2024-02-26 09h29.08.788180 -0500,
9,0,9,0,227.9881633000914,,,,227.97262630006298,232.97170559992082,232.97171199996956,232.98814500006847,240.97163800010458,240.97163800010458,243.1883207000792,243.9716694999952,243.9716694999952,243.95517670013942,4.28,4.52,428,451,8,3,1.2,0.75,469,1,473,0.4,1,m,1.251335500041023,None,,,,,,,,sub-032,COM3,46.9,2024-02-26_09h28.48.393,2024_RDpaindiscrimination_QUEST,2023.2.3,60.017308983971496,2024-02-26 09h29.08.788180 -0500,
10,0,10,0,243.9716694999952,,,,243.95617270004004,248.95520450011827,248.95521149993874,248.97170790005475,256.95512249995954,256.95512249995954,259.17181540001184,259.95515249995515,259.95515249995515,259.938667899929,4.66,4.14,466,413,8,3,1.2,0.75,469,2,473,0.4,0,n,1.4001794999931008,None,,,,,,,,sub-032,COM3,46.9,2024-02-26_09h28.48.393,2024_RDpaindiscrimination_QUEST,2023.2.3,60.017308983971496,2024-02-26 09h29.08.788180 -0500,
11,0,11,0,259.95515249995515,,,,259.9396025000606,264.9386831999291,264.9386895999778,264.9551274999976,272.9386128000915,272.9386128000915,275.15527500002645,275.9387286999263,275.9387286999263,275.92215820006095,4.36,4.44,436,444,8,3,1.2,0.75,469,3,474,0.5,1,m,1.2194656000938267,None,,,,,,,,sub-032,COM3,46.9,2024-02-26_09h28.48.393,2024_RDpaindiscrimination_QUEST,2023.2.3,60.017308983971496,2024-02-26 09h29.08.788180 -0500,
12,0,12,0,275.9387286999263,,,,275.923056300031,280.922187600052,280.9221938000992,280.9386998000555,288.92211059993133,288.92211059993133,291.13879310013726,291.922179199988,291.922179199988,291.9056297999341,3.66,5.14,366,514,8,3,1.2,0.75,469,0,474,0.5,1,m,1.184376899851486,None,,,,,,,,sub-032,COM3,46.9,2024-02-26_09h28.48.393,2024_RDpaindiscrimination_QUEST,2023.2.3,60.017308983971496,2024-02-26 09h29.08.788180 -0500,
13,0,13,0,291.922179199988,,,,291.90656469995156,296.90568590001203,296.9056923999451,296.92215020000003,304.9056029000785,304.9056029000785,307.12229260010645,307.90557119995356,307.90557119995356,307.8891427000053,4.21,4.59,421,459,8,3,1.2,0.75,469,1,473,0.4,1,m,1.0974352001212537,None,,,,,,,,sub-032,COM3,46.9,2024-02-26_09h28.48.393,2024_RDpaindiscrimination_QUEST,2023.2.3,60.017308983971496,2024-02-26 09h29.08.788180 -0500,
14,0,14,0,307.90557119995356,,,,307.8900385000743,312.88918119994923,312.8891871999949,312.90570860006846,320.8890931000933,320.8890931000933,323.1057873000391,323.88912950013764,323.88912950013764,323.8726898999885,3.39,5.41,339,541,8,3,1.2,0.75,469,2,473,0.4,0,n,1.2503840997815132,None,,,,,,,,sub-032,COM3,46.9,2024-02-26_09h28.48.393,2024_RDpaindiscrimination_QUEST,2023.2.3,60.017308983971496,2024-02-26 09h29.08.788180 -0500,
15,0,15,0,323.88912950013764,,,,323.8736348999664,328.87267239997163,328.8726784000173,328.889109400101,336.8725968999788,336.8725968999788,339.08927830005996,339.8726177001372,339.8726177001372,339.8561535999179,4.42,4.38,442,438,8,3,1.2,0.75,469,3,474,0.5,1,m,1.2582232002168894,None,,,,,,,,sub-032,COM3,46.9,2024-02-26_09h28.48.393,2024_RDpaindiscrimination_QUEST,2023.2.3,60.017308983971496,2024-02-26 09h29.08.788180 -0500,
16,0,16,0,339.8726177001372,,,,339.8570672001224,344.8562652000692,344.85627200012095,344.87271369993687,352.85616800002754,352.85616800002754,355.07272809999995,355.856070100097,355.856070100097,355.83959190011956,4.16,4.64,416,463,8,3,1.2,0.75,469,0,474,0.5,1,m,1.359007199993357,None,,,,,,,,sub-032,COM3,46.9,2024-02-26_09h28.48.393,2024_RDpaindiscrimination_QUEST,2023.2.3,60.017308983971496,2024-02-26 09h29.08.788180 -0500,
17,0,17,0,355.856070100097,,,,355.8405520999804,360.83964810008183,360.8396538000088,360.8561154000927,368.83953569992445,368.83953569992445,371.0562237999402,371.8395318000112,371.8395318000112,371.8230496000033,3.87,4.93,387,493,8,3,1.2,0.75,469,1,473,0.4,1,m,1.1830067001283169,None,,,,,,,,sub-032,COM3,46.9,2024-02-26_09h28.48.393,2024_RDpaindiscrimination_QUEST,2023.2.3,60.017308983971496,2024-02-26 09h29.08.788180 -0500,
18,0,18,0,371.8395318000112,,,,371.8240038000513,376.8230719000567,376.82307790010236,376.839578300016,384.8229960000608,384.8229960000608,387.03967640013434,387.823026600061,387.823026600061,387.80662259995006,3.53,5.27,353,527,8,3,1.2,0.75,469,2,473,0.4,0,n,1.3789809998124838,None,,,,,,,,sub-032,COM3,46.9,2024-02-26_09h28.48.393,2024_RDpaindiscrimination_QUEST,2023.2.3,60.017308983971496,2024-02-26 09h29.08.788180 -0500,
19,0,19,0,387.823026600061,,,,387.80758269992657,392.80668010003865,392.8066859000828,392.82313559995964,400.8065983999986,400.8065983999986,403.0232248001266,403.80651840008795,403.80651840008795,403.79007710004225,3.82,4.98,382,498,8,3,1.2,0.75,469,3,474,0.5,1,m,1.1556408000178635,None,,,,,,,,sub-032,COM3,46.9,2024-02-26_09h28.48.393,2024_RDpaindiscrimination_QUEST,2023.2.3,60.017308983971496,2024-02-26 09h29.08.788180 -0500,
20,0,20,0,403.80651840008795,,,,403.7910305999685,408.79015400004573,408.79016020009294,408.80661049997434,416.79006229992956,416.79006229992956,419.0067628000397,419.7900914999191,419.7900914999191,419.77356000011787,4.48,4.32,448,432,8,3,1.2,0.75,469,0,474,0.5,1,m,1.1202306000050157,None,,,,,,,,sub-032,COM3,46.9,2024-02-26_09h28.48.393,2024_RDpaindiscrimination_QUEST,2023.2.3,60.017308983971496,2024-02-26 09h29.08.788180 -0500,
21,0,21,0,419.7900914999191,,,,419.7744944000151,424.77364069991745,424.7736466000788,424.7901407999452,432.77355709997937,432.77355709997937,434.9902449999936,435.7734751000535,435.7734751000535,435.75703470013104,3.73,5.07,373,507,8,3,1.2,0.75,469,1,473,0.4,1,m,1.316339099779725,None,,,,,,,,sub-032,COM3,46.9,2024-02-26_09h28.48.393,2024_RDpaindiscrimination_QUEST,2023.2.3,60.017308983971496,2024-02-26 09h29.08.788180 -0500,
22,0,22,0,435.7734751000535,,,,435.75795100000687,440.75713189993985,440.75713809998706,440.77361949998885,448.75705100013874,448.75705100013874,450.9737448999658,451.7570019001141,451.7570019001141,451.7405950999819,3.69,5.11,369,511,8,3,1.2,0.75,469,2,473,0.4,0,n,1.2333412999287248,None,,,,,,,,sub-032,COM3,46.9,2024-02-26_09h28.48.393,2024_RDpaindiscrimination_QUEST,2023.2.3,60.017308983971496,2024-02-26 09h29.08.788180 -0500,
23,0,23,0,451.7570019001141,,,,451.7415462001227,456.740628000116,456.7406343999319,456.757141900016,464.74057679995894,464.74057679995894,466.9571956999134,467.7405920000747,467.7405920000747,467.7240929999389,3.67,5.13,367,513,8,3,1.2,0.75,469,3,474,0.5,0,n,1.2896428999956697,None,,,,,,,,sub-032,COM3,46.9,2024-02-26_09h28.48.393,2024_RDpaindiscrimination_QUEST,2023.2.3,60.017308983971496,2024-02-26 09h29.08.788180 -0500,
24,0,24,0,467.7405920000747,,,,467.7250173999928,472.72410680004396,472.7241126000881,472.7405507999938,480.7241201000288,480.7241201000288,482.94076319993474,483.72404989995994,483.72404989995994,483.7076290000696,4.73,4.07,473,407,8,3,1.2,0.75,469,0,475,0.6,1,m,1.205912500154227,None,,,,,,,,sub-032,COM3,46.9,2024-02-26_09h28.48.393,2024_RDpaindiscrimination_QUEST,2023.2.3,60.017308983971496,2024-02-26 09h29.08.788180 -0500,
25,0,25,0,483.72404989995994,,,,483.70858189999126,488.7077438000124,488.70774960005656,488.7241631001234,496.7075642000418,496.7075642000418,498.9241969999857,499.7075432999991,499.7075432999991,499.69105220003985,3.79,5.01,379,501,8,3,1.2,0.75,469,1,475,0.6,1,m,1.2148007000796497,None,,,,,,,,sub-032,COM3,46.9,2024-02-26_09h28.48.393,2024_RDpaindiscrimination_QUEST,2023.2.3,60.017308983971496,2024-02-26 09h29.08.788180 -0500,
26,0,26,0,499.7075432999991,,,,499.6919571000617,504.69114689994603,504.6911528999917,504.7076755000744,512.6910804000217,512.6910804000217,514.9077391999308,515.6911093001254,515.6911093001254,515.6746183999348,3.49,5.31,349,531,8,3,1.2,0.75,469,2,474,0.5,0,n,1.2711858998518437,None,,,,,,,,sub-032,COM3,46.9,2024-02-26_09h28.48.393,2024_RDpaindiscrimination_QUEST,2023.2.3,60.017308983971496,2024-02-26 09h29.08.788180 -0500,
27,0,27,0,515.6911093001254,,,,515.67553030001,520.6746563999914,520.6746622999199,520.6911619999446,528.674570400035,528.674570400035,530.8912617000751,531.6746104001068,531.6746104001068,531.6580217999872,4.57,4.23,457,423,8,3,1.2,0.75,469,3,475,0.6,1,m,1.0956383999437094,None,,,,,,,,sub-032,COM3,46.9,2024-02-26_09h28.48.393,2024_RDpaindiscrimination_QUEST,2023.2.3,60.017308983971496,2024-02-26 09h29.08.788180 -0500,
28,0,28,0,531.6746104001068,,,,531.6589385999832,536.6581570000853,536.6581633000169,536.6746454001404,544.6580020999536,544.6580020999536,546.8747980000917,547.6581186000258,547.6581186000258,547.6415615000296,3.98,4.82,398,482,8,3,1.2,0.75,469,0,475,0.6,1,m,1.3396040999796242,None,,,,,,,,sub-032,COM3,46.9,2024-02-26_09h28.48.393,2024_RDpaindiscrimination_QUEST,2023.2.3,60.017308983971496,2024-02-26 09h29.08.788180 -0500,
29,0,29,0,547.6581186000258,,,,547.642486399971,552.641646000091,552.6416522001382,552.6581598001067,560.641574600013,560.641574600013,562.8582705999725,563.6416015001014,563.6416015001014,563.6251097000204,4.7,4.1,470,409,8,3,1.2,0.75,469,1,474,0.5,1,m,1.1167920001316816,None,,,,,,,,sub-032,COM3,46.9,2024-02-26_09h28.48.393,2024_RDpaindiscrimination_QUEST,2023.2.3,60.017308983971496,2024-02-26 09h29.08.788180 -0500,
30,0,30,0,563.6416015001014,,,,563.6260651000775,568.6251519999932,568.6251582999248,568.6416273999494,576.6250648999121,576.6250648999121,578.8416872001253,579.6250398000702,579.6250398000702,579.6085491999984,4.54,4.26,454,426,8,3,1.2,0.75,469,2,474,0.5,0,n,1.4051234000362456,None,,,,,,,,sub-032,COM3,46.9,2024-02-26_09h28.48.393,2024_RDpaindiscrimination_QUEST,2023.2.3,60.017308983971496,2024-02-26 09h29.08.788180 -0500,
31,0,31,0,579.6250398000702,,,,579.609491399955,584.6085761000868,584.6085833001416,584.6250815999229,592.6084976000711,592.6084976000711,594.825235000113,595.6085530999117,595.6085530999117,595.5920033999719,3.75,5.05,375,505,8,3,1.2,0.75,469,3,475,0.6,1,m,1.3216495998203754,None,,,,,,,,sub-032,COM3,46.9,2024-02-26_09h28.48.393,2024_RDpaindiscrimination_QUEST,2023.2.3,60.017308983971496,2024-02-26 09h29.08.788180 -0500,
,,,,,,,,,,,,,,,,,,,,,,,,,,,,,,,,,,595.5928595000878,595.6085530999117,601.6586019999813,601.5920887000393,0.5166666666666667,47.416666666666664,0.4836556306855501,,,,,,,,,
