trials.thisRepN,trials.thisTrialN,trials.thisN,trials.thisIndex,thisRow.t,notes,trial.started,trial.stopped,wait.started,wait.stopped,triggerrrs.started,thermode_locali_pic.started,percu_or.started,responser.started,thermode_locali_pic.stopped,percu_or.stopped,responser.stopped,triggerrrs.stopped,dur_plateau1,dur_plateau2,dur_plateau1_sent,dur_plateau2_sent,start_plateau_2_resp,start_detect_cue,dur_pic,dur_rise,temp_plateau_sent,loca_thermode,pic_sent,quest_intens,pic_response,discrimin_resp.keys,discrimin_resp.rt,discrimin_resp.duration,Cali_fin.started,text.started,text.stopped,Cali_fin.stopped,mean_6_reversals,pic_a_utiliser,threshold,participant,com_thermode,temp_plateau,date,expName,psychopyVersion,frameRate,expStart,
0,0,0,0,58.05379300000004,,0.003180000000156724,58.03749319999997,58.03785400000015,63.03735999999981,63.03736630000003,63.05388970000013,71.03723730000002,71.03723730000002,73.25397049999992,74.03723910000008,74.03723910000008,74.02083080000011,4.57,4.23,457,423,8,3,1.2,0.75,435,0,443,0.8,1,m,1.253498799999761,None,,,,,,,,sub-020,COM3,43.5,2024-02-09_09h53.40.700,2024_RDpaindiscrimination_QUEST,2023.2.3,60.00146403584702,2024-02-09 09h53.54.528468 -0500,
1,0,1,0,74.03723910000008,,,,74.0220073999999,79.02085149999994,79.02085859999988,79.03728599999977,87.03737210000008,87.03737210000008,89.23744260000012,90.03739880000012,90.03739880000012,90.0209718000001,3.69,5.11,369,511,8,3,1.2,0.75,435,1,439,0.4,0,n,0.5374870999999075,None,,,,,,,,sub-020,COM3,43.5,2024-02-09_09h53.40.700,2024_RDpaindiscrimination_QUEST,2023.2.3,60.00146403584702,2024-02-09 09h53.54.528468 -0500,
2,0,2,0,90.03739880000012,,,,90.0219020999998,95.02102590000004,95.02103260000013,95.03745600000002,103.02092679999987,103.02092679999987,105.23756109999977,106.02089560000013,106.02089560000013,106.00443309999991,3.73,5.07,373,507,8,3,1.2,0.75,435,2,442,0.7,0,n,0.45342329999994035,None,,,,,,,,sub-020,COM3,43.5,2024-02-09_09h53.40.700,2024_RDpaindiscrimination_QUEST,2023.2.3,60.00146403584702,2024-02-09 09h53.54.528468 -0500,
3,0,3,0,106.02089560000013,,,,106.00539479999998,111.00443649999988,111.00444299999981,111.02095899999995,119.00449780000008,119.00449780000008,121.23780940000006,122.00447489999988,122.00447489999988,121.98806190000005,4.42,4.38,442,438,8,3,1.2,0.75,435,3,445,1.0,1,m,0.36679019999974116,None,,,,,,,,sub-020,COM3,43.5,2024-02-09_09h53.40.700,2024_RDpaindiscrimination_QUEST,2023.2.3,60.00146403584702,2024-02-09 09h53.54.528468 -0500,
4,0,4,0,122.00447489999988,,,,121.98898580000014,126.98801259999982,126.98801849999973,127.00452519999999,134.98794629999975,134.98794629999975,137.20463100000006,137.98796749999974,137.98796749999974,137.97149630000013,3.77,5.03,377,503,8,3,1.2,0.75,435,0,445,1.0,0,n,0.46662770000011733,None,,,,,,,,sub-020,COM3,43.5,2024-02-09_09h53.40.700,2024_RDpaindiscrimination_QUEST,2023.2.3,60.00146403584702,2024-02-09 09h53.54.528468 -0500,
5,0,5,0,137.98796749999974,,,,137.97240920000013,142.97157040000002,142.97157909999987,142.98801439999988,150.97140809999973,150.97140809999973,153.18811529999994,153.97149679999984,153.97149679999984,153.9549708999998,4.51,4.29,451,429,8,3,1.2,0.75,435,1,445,1,1,m,0.37863900000002104,None,,,,,,,,sub-020,COM3,43.5,2024-02-09_09h53.40.700,2024_RDpaindiscrimination_QUEST,2023.2.3,60.00146403584702,2024-02-09 09h53.54.528468 -0500,
6,0,6,0,153.97149679999984,,,,153.95591009999998,158.9550408,158.95504729999993,158.97144819999994,166.9549234000001,166.9549234000001,169.17162009999993,169.95488720000003,169.95488720000003,169.93841509999993,3.31,5.49,331,549,8,3,1.2,0.75,435,2,445,1,0,n,0.43499960000008286,None,,,,,,,,sub-020,COM3,43.5,2024-02-09_09h53.40.700,2024_RDpaindiscrimination_QUEST,2023.2.3,60.00146403584702,2024-02-09 09h53.54.528468 -0500,
7,0,7,0,169.95488720000003,,,,169.9393624999998,174.93852019999986,174.93852669999978,174.95497010000008,182.9383167000001,182.9383167000001,185.1550628,185.93832840000005,185.93832840000005,185.92188989999977,3.41,5.39,341,539,8,3,1.2,0.75,435,3,445,1,0,n,0.34764510000013615,None,,,,,,,,sub-020,COM3,43.5,2024-02-09_09h53.40.700,2024_RDpaindiscrimination_QUEST,2023.2.3,60.00146403584702,2024-02-09 09h53.54.528468 -0500,
8,0,8,0,185.93832840000005,,,,185.92282429999977,190.92191749999984,190.92192449999993,190.93851229999973,198.92187400000012,198.92187400000012,201.13856780000015,201.9219066999999,201.9219066999999,201.90542090000008,4.6,4.2,459,420,8,3,1.2,0.75,435,0,445,1,0,n,0.36166599999978644,None,,,,,,,,sub-020,COM3,43.5,2024-02-09_09h53.40.700,2024_RDpaindiscrimination_QUEST,2023.2.3,60.00146403584702,2024-02-09 09h53.54.528468 -0500,
9,0,9,0,201.9219066999999,,,,201.9063772999998,206.90540539999984,206.90541170000006,206.92192829999976,214.9053684999999,214.9053684999999,217.12202960000013,217.90533959999993,217.90533959999993,217.8889091000001,4.31,4.49,430,449,8,3,1.2,0.75,435,1,445,1,1,m,0.41778160000012576,None,,,,,,,,sub-020,COM3,43.5,2024-02-09_09h53.40.700,2024_RDpaindiscrimination_QUEST,2023.2.3,60.00146403584702,2024-02-09 09h53.54.528468 -0500,
10,0,10,0,217.90533959999993,,,,217.88985379999986,222.8889847999999,222.88899189999984,222.90544850000015,230.8888619999998,230.8888619999998,233.10551050000004,233.88889310000013,233.88889310000013,233.87244770000007,3.33,5.47,333,547,8,3,1.2,0.75,435,2,445,1,0,n,0.37847099999999045,None,,,,,,,,sub-020,COM3,43.5,2024-02-09_09h53.40.700,2024_RDpaindiscrimination_QUEST,2023.2.3,60.00146403584702,2024-02-09 09h53.54.528468 -0500,
11,0,11,0,233.88889310000013,,,,233.87337309999975,238.8724357000001,238.87244259999989,238.888911,246.87235329999976,246.87235329999976,249.08899799999972,249.87235109999983,249.87235109999983,249.85596579999992,4.68,4.12,468,412,8,3,1.2,0.75,435,3,445,1,0,n,0.3852517000000262,None,,,,,,,,sub-020,COM3,43.5,2024-02-09_09h53.40.700,2024_RDpaindiscrimination_QUEST,2023.2.3,60.00146403584702,2024-02-09 09h53.54.528468 -0500,
12,0,12,0,249.87235109999983,,,,249.8569090000001,254.85593000000017,254.8559363999998,254.87244310000005,262.85585029999993,262.85585029999993,265.07245890000013,265.8558810999998,265.8558810999998,265.8394045,3.59,5.21,359,521,8,3,1.2,0.75,435,0,445,1,1,m,0.4420871999996052,None,,,,,,,,sub-020,COM3,43.5,2024-02-09_09h53.40.700,2024_RDpaindiscrimination_QUEST,2023.2.3,60.00146403584702,2024-02-09 09h53.54.528468 -0500,
13,0,13,0,265.8558810999998,,,,265.84032119999983,270.8394284000001,270.8394352,270.8558923999999,278.83937479999986,278.83937479999986,281.0560618999998,281.8393814000001,281.8393814000001,281.82289579999997,3.67,5.13,367,513,8,3,1.2,0.75,435,1,445,1,1,m,0.3591945999996824,None,,,,,,,,sub-020,COM3,43.5,2024-02-09_09h53.40.700,2024_RDpaindiscrimination_QUEST,2023.2.3,60.00146403584702,2024-02-09 09h53.54.528468 -0500,
14,0,14,0,281.8393814000001,,,,281.8238169000001,286.8228991000001,286.82290569999986,286.83943309999995,294.82283129999996,294.82283129999996,297.03953999999976,297.8228180000001,297.8228180000001,297.8063913000001,4.64,4.16,463,416,8,3,1.2,0.75,435,2,443,0.8,0,n,0.411589400000139,None,,,,,,,,sub-020,COM3,43.5,2024-02-09_09h53.40.700,2024_RDpaindiscrimination_QUEST,2023.2.3,60.00146403584702,2024-02-09 09h53.54.528468 -0500,
15,0,15,0,297.8228180000001,,,,297.80733229999987,302.80642160000025,302.80642799999987,302.82291520000035,310.80634159999954,310.80634159999954,313.02302919999966,313.80637060000026,313.80637060000026,313.78989040000033,3.72,5.08,372,508,8,3,1.2,0.75,435,3,444,0.9,1,m,0.37705110000024433,None,,,,,,,,sub-020,COM3,43.5,2024-02-09_09h53.40.700,2024_RDpaindiscrimination_QUEST,2023.2.3,60.00146403584702,2024-02-09 09h53.54.528468 -0500,
16,0,16,0,313.80637060000026,,,,313.79085099999975,318.78981209999984,318.7898181999999,318.8064088000001,326.7897944999995,326.7897944999995,329.0064554999999,329.78986520000035,329.78986520000035,329.7733774999997,3.64,5.16,364,516,8,3,1.2,0.75,435,0,444,0.9,1,m,0.3811537000001408,None,,,,,,,,sub-020,COM3,43.5,2024-02-09_09h53.40.700,2024_RDpaindiscrimination_QUEST,2023.2.3,60.00146403584702,2024-02-09 09h53.54.528468 -0500,
17,0,17,0,329.78986520000035,,,,329.7742787999996,334.7733683999995,334.77337480000006,334.78991810000025,342.77334659999997,342.77334659999997,344.9899276999995,345.7732866999995,345.7732866999995,345.7567946999998,4.73,4.07,473,407,8,3,1.2,0.75,435,1,443,0.8,0,n,0.8121324000003369,None,,,,,,,,sub-020,COM3,43.5,2024-02-09_09h53.40.700,2024_RDpaindiscrimination_QUEST,2023.2.3,60.00146403584702,2024-02-09 09h53.54.528468 -0500,
18,0,18,0,345.7732866999995,,,,345.75776529999985,350.7568347999995,350.7568419999998,350.7733339999995,358.75674439999966,358.75674439999966,360.9734792999998,361.75682679999954,361.75682679999954,361.74029470000005,4.68,4.12,468,412,8,3,1.2,0.75,435,2,444,0.9,1,m,0.49317530000007537,None,,,,,,,,sub-020,COM3,43.5,2024-02-09_09h53.40.700,2024_RDpaindiscrimination_QUEST,2023.2.3,60.00146403584702,2024-02-09 09h53.54.528468 -0500,
19,0,19,0,361.75682679999954,,,,361.74123150000014,366.7403167000002,366.74032329999955,366.7568319000002,374.74024569999983,374.74024569999983,376.95692979999967,377.7402761000003,377.7402761000003,377.7238176000001,3.41,5.39,341,539,8,3,1.2,0.75,435,3,444,0.9,1,m,0.3577708000002531,None,,,,,,,,sub-020,COM3,43.5,2024-02-09_09h53.40.700,2024_RDpaindiscrimination_QUEST,2023.2.3,60.00146403584702,2024-02-09 09h53.54.528468 -0500,
20,0,20,0,377.7402761000003,,,,377.72472070000003,382.7238341000002,382.7238400999995,382.7403271000003,390.72373830000015,390.72373830000015,392.9404328999999,393.7239440000003,393.7239440000003,393.7072876000002,4.3,4.5,430,450,8,3,1.2,0.75,435,0,443,0.8,0,n,0.41438169999946695,None,,,,,,,,sub-020,COM3,43.5,2024-02-09_09h53.40.700,2024_RDpaindiscrimination_QUEST,2023.2.3,60.00146403584702,2024-02-09 09h53.54.528468 -0500,
21,0,21,0,393.7239440000003,,,,393.7082190000001,398.7074104000003,398.7074160000002,398.7239000999998,406.7073038999997,406.7073038999997,408.92400610000004,409.7073430999999,409.7073430999999,409.6908063000001,3.53,5.27,353,527,8,3,1.2,0.75,435,1,444,0.9,1,m,0.3749582999998893,None,,,,,,,,sub-020,COM3,43.5,2024-02-09_09h53.40.700,2024_RDpaindiscrimination_QUEST,2023.2.3,60.00146403584702,2024-02-09 09h53.54.528468 -0500,
22,0,22,0,409.7073430999999,,,,409.6917295000003,414.69083799999953,414.6908448000004,414.7074174999998,422.69080889999987,422.69080889999987,424.90749700000015,425.6908346,425.6908346,425.6743016999999,4.22,4.58,422,458,8,3,1.2,0.75,435,2,444,0.9,1,m,0.38425790000019333,None,,,,,,,,sub-020,COM3,43.5,2024-02-09_09h53.40.700,2024_RDpaindiscrimination_QUEST,2023.2.3,60.00146403584702,2024-02-09 09h53.54.528468 -0500,
23,0,23,0,425.6908346,,,,425.67526540000017,430.6743712999996,430.6743776000003,430.69088999999985,438.6742641999999,438.6742641999999,440.8909888999997,441.6743422999998,441.6743422999998,441.6578548999996,3.86,4.94,386,494,8,3,1.2,0.75,435,3,443,0.8,1,m,0.29544330000044283,None,,,,,,,,sub-020,COM3,43.5,2024-02-09_09h53.40.700,2024_RDpaindiscrimination_QUEST,2023.2.3,60.00146403584702,2024-02-09 09h53.54.528468 -0500,
24,0,24,0,441.6743422999998,,,,441.6588034999995,446.65787850000015,446.65788450000036,446.67433210000036,454.6577946999996,454.6577946999996,456.8744961000002,457.6578333999996,457.6578333999996,457.6413480000001,3.6,5.2,360,520,8,3,1.2,0.75,435,0,443,0.8,1,m,0.352327200000218,None,,,,,,,,sub-020,COM3,43.5,2024-02-09_09h53.40.700,2024_RDpaindiscrimination_QUEST,2023.2.3,60.00146403584702,2024-02-09 09h53.54.528468 -0500,
25,0,25,0,457.6578333999996,,,,457.64225480000005,462.6413819999998,462.641388,462.6578909,470.64130810000006,470.64130810000006,472.8579942999995,473.6413556999996,473.6413556999996,473.62498460000006,4.07,4.73,407,473,8,3,1.2,0.75,435,1,442,0.7000000000000001,0,n,0.31208540000079665,None,,,,,,,,sub-020,COM3,43.5,2024-02-09_09h53.40.700,2024_RDpaindiscrimination_QUEST,2023.2.3,60.00146403584702,2024-02-09 09h53.54.528468 -0500,
26,0,26,0,473.6413556999996,,,,473.6259154999998,478.6247721,478.6247788999999,478.64139109999996,486.64147030000004,486.64147030000004,488.8415113000001,489.6415257999997,489.6415257999997,489.62503860000015,4.63,4.17,463,417,8,3,1.2,0.75,435,2,443,0.8,1,m,0.4447531000005256,None,,,,,,,,sub-020,COM3,43.5,2024-02-09_09h53.40.700,2024_RDpaindiscrimination_QUEST,2023.2.3,60.00146403584702,2024-02-09 09h53.54.528468 -0500,
27,0,27,0,489.6415257999997,,,,489.6260064999997,494.62503970000034,494.62504590000026,494.6415304000002,502.6250536999996,502.6250536999996,504.8416348999999,505.62499860000025,505.62499860000025,505.6084828000003,4.61,4.19,461,419,8,3,1.2,0.75,435,3,443,0.8,0,n,0.4045027000001937,None,,,,,,,,sub-020,COM3,43.5,2024-02-09_09h53.40.700,2024_RDpaindiscrimination_QUEST,2023.2.3,60.00146403584702,2024-02-09 09h53.54.528468 -0500,
28,0,28,0,505.62499860000025,,,,505.6094293999995,510.6085726000001,510.6085790999996,510.6250831999996,518.6084867,518.6084867,520.8251962000004,521.6084760000003,521.6084760000003,521.5920425000004,4.24,4.56,424,455,8,3,1.2,0.75,435,0,444,0.9,1,m,0.5087844999998197,None,,,,,,,,sub-020,COM3,43.5,2024-02-09_09h53.40.700,2024_RDpaindiscrimination_QUEST,2023.2.3,60.00146403584702,2024-02-09 09h53.54.528468 -0500,
29,0,29,0,521.6084760000003,,,,521.5929875000002,526.5920987999998,526.5921056999996,526.6085452999996,534.5920307999995,534.5920307999995,536.8086820999997,537.5920251999996,537.5920251999996,537.5755293000002,4.41,4.39,441,438,8,3,1.2,0.75,435,1,444,0.9,1,m,0.37320509999972273,None,,,,,,,,sub-020,COM3,43.5,2024-02-09_09h53.40.700,2024_RDpaindiscrimination_QUEST,2023.2.3,60.00146403584702,2024-02-09 09h53.54.528468 -0500,
30,0,30,0,537.5920251999996,,,,537.5765369000001,542.5755165999999,542.5755256000002,542.5920821,550.5754428,550.5754428,552.7921459999998,553.5754491999996,553.5754491999996,553.5589631000003,4.64,4.16,463,416,8,3,1.2,0.75,435,2,443,0.8,1,m,0.3817902000000686,None,,,,,,,,sub-020,COM3,43.5,2024-02-09_09h53.40.700,2024_RDpaindiscrimination_QUEST,2023.2.3,60.00146403584702,2024-02-09 09h53.54.528468 -0500,
31,0,31,0,553.5754491999996,,,,553.5598829,558.5589963000002,558.5590025000001,558.5755140000001,566.5589699000002,566.5589699000002,568.7756066000002,569.5589295999998,569.5589295999998,569.5425268999998,4.24,4.56,424,455,8,3,1.2,0.75,435,3,443,0.8,1,m,0.3906234999994922,None,,,,,,,,sub-020,COM3,43.5,2024-02-09_09h53.40.700,2024_RDpaindiscrimination_QUEST,2023.2.3,60.00146403584702,2024-02-09 09h53.54.528468 -0500,
,,,,,,,,,,,,,,,,,,,,,,,,,,,,,,,,,,569.5433978000001,569.5589295999998,575.6090146999995,575.5425300999996,0.8333333333333334,44.333333333333336,1.1187573409578433,,,,,,,,,
