trials.thisRepN,trials.thisTrialN,trials.thisN,trials.thisIndex,loop_test.thisRepN,loop_test.thisTrialN,loop_test.thisN,loop_test.thisIndex,loop_eval_discri.thisRepN,loop_eval_discri.thisTrialN,loop_eval_discri.thisN,loop_eval_discri.thisIndex,loop_eval.thisRepN,loop_eval.thisTrialN,loop_eval.thisN,loop_eval.thisIndex,loop_discri.thisRepN,loop_discri.thisTrialN,loop_discri.thisN,loop_discri.thisIndex,thisRow.t,notes,Set_up.started,Set_up.stopped,electrode_check.started,electrode_check.stopped,instructions_eval.started,instructions_eval.stopped,pause_5_test.started,pause_5_test.stopped,Phase_Test.started,thermode_locali.started,thermode_locali.stopped,Phase_Test.stopped,loca_thermode,condition,temp_trial_sent,eval_douleur.started,eval_douleur.stopped,ratingScale.response,ratingScale.rt,Fin_test.started,text.started,Fin_test.stopped,pause_5_EVA.started,pause_5_EVA.stopped,tâche_EVA.started,thermode_locali_EVA.started,thermode_locali_EVA.stopped,tâche_EVA.stopped,instructions_discrim.started,instructions_discrim.stopped,pause_5_pic.started,pause_5_pic.stopped,tâche_PIC.started,thermode_locali_pic.started,percu_or.started,responser.started,percu_or.stopped,responser.stopped,thermode_locali_pic.stopped,tâche_PIC.stopped,dur_plateau1,dur_plateau2,dur_plateau1_sent,dur_plateau2_sent,start_plateau_2_resp,dur_pic,dur_rise,pic_presence,pic_response,discrimin_resp.keys,discrimin_resp.rt,discrimin_resp.duration,break_entre_bloc.started,break_entre_bloc.stopped,merci.started,merci.stopped,participant,temp_flat,temp_active,temp_pic_set,com_thermode,date,expName,psychopyVersion,frameRate,expStart,
0,0,0,0,0,0,0,0,,,,,,,,,,,,,145.98859470000025,,0.01864959999875282,132.62259020000056,132.62334869999904,143.3894395999996,143.3894548999997,145.97304240000085,145.97366770000008,150.97261499999877,150.97262679999767,150.98870840000018,161.07230159999745,160.97328199999902,0,inactive,44.6,160.9733019999985,165.52567089999866,8.500000000000131,4.468,,,,,,,,,,,,,,,,,,,,,,,,,,,,,,,,,,,,,,sub-003,44.6,42.4,46.1,COM3,2024-01-23_16h34.06.024,2024_RDpaindiscrimination_maintask,2023.2.3,59.989549819851696,2024-01-23 16h34.34.572753 -0500,
0,0,0,0,1,0,1,0,,,,,,,,,,,,,165.53907269999763,,,,,,,,165.52633340000102,170.52300439999817,170.52301609999995,170.53919039999892,180.60609750000003,180.52369080000062,1,inactive,44.6,180.5237051999975,184.1252534999985,30.000000000000107,3.531,,,,,,,,,,,,,,,,,,,,,,,,,,,,,,,,,,,,,,sub-003,44.6,42.4,46.1,COM3,2024-01-23_16h34.06.024,2024_RDpaindiscrimination_maintask,2023.2.3,59.989549819851696,2024-01-23 16h34.34.572753 -0500,
0,0,0,0,2,0,2,0,,,,,,,,,,,,,184.15622900000017,,,,,,,,184.12696629999846,189.1396797999987,189.13969050000014,189.15629989999798,,199.13991879999958,2,active,42.4,199.13993280000068,203.70939739999812,25.50000000000012,4.499,,,,,,,,,,,,,,,,,,,,,,,,,,,,,,,,,,,,,,sub-003,44.6,42.4,46.1,COM3,2024-01-23_16h34.06.024,2024_RDpaindiscrimination_maintask,2023.2.3,59.989549819851696,2024-01-23 16h34.34.572753 -0500,
0,0,0,0,3,0,3,0,,,,,,,,,,,,,203.74008859999958,,,,,,,,203.71112770000036,208.7234951999999,208.72350630000074,208.74009429999933,,218.72370149999915,3,inactive,44.6,218.7237153999995,221.62618099999963,51.49999999999996,2.832,,,,,,,,,,,,,,,,,,,,,,,,,,,,,,,,,,,,,,sub-003,44.6,42.4,46.1,COM3,2024-01-23_16h34.06.024,2024_RDpaindiscrimination_maintask,2023.2.3,59.989549819851696,2024-01-23 16h34.34.572753 -0500,
0,0,0,0,4,0,4,0,,,,,,,,,,,,,221.65706819999832,,,,,,,,221.62794059999942,226.64058379999915,226.64059479999923,226.6571612000007,,236.6408139999985,0,active,42.4,236.64082779999808,241.0937589999994,14.500000000000172,4.383,,,,,,,,,,,,,,,,,,,,,,,,,,,,,,,,,,,,,,sub-003,44.6,42.4,46.1,COM3,2024-01-23_16h34.06.024,2024_RDpaindiscrimination_maintask,2023.2.3,59.989549819851696,2024-01-23 16h34.34.572753 -0500,
0,0,0,0,5,0,5,0,,,,,,,,,,,,,241.1241845000004,,,,,,,,241.09547569999995,246.10769079999955,246.10770219999904,246.1244302999985,,256.1079260999977,1,active,42.4,256.1079396999994,259.71230119999746,19.50000000000007,3.534,,,,,,,,,,,,,,,,,,,,,,,,,,,,,,,,,,,,,,sub-003,44.6,42.4,46.1,COM3,2024-01-23_16h34.06.024,2024_RDpaindiscrimination_maintask,2023.2.3,59.989549819851696,2024-01-23 16h34.34.572753 -0500,
0,0,0,0,6,0,6,0,,,,,,,,,,,,,259.7414160999979,,,,,,,,259.71405179999783,264.72481490000064,264.72482599999785,264.7414198000006,,274.7250290999982,2,inactive,44.6,274.7250432000001,278.1938372000004,46.499999999999986,3.398,,,,,,,,,,,,,,,,,,,,,,,,,,,,,,,,,,,,,,sub-003,44.6,42.4,46.1,COM3,2024-01-23_16h34.06.024,2024_RDpaindiscrimination_maintask,2023.2.3,59.989549819851696,2024-01-23 16h34.34.572753 -0500,
0,0,0,0,7,0,7,0,,,,,,,,,,,,,278.2085184999996,,,,,,,,278.19495839999945,283.192371000001,283.1923829999978,283.20850280000013,293.2754098000005,293.19305600000007,3,inactive,44.6,293.1930702999998,296.92807639999955,41.00000000000014,3.664,,,,,,,,,,,,,,,,,,,,,,,,,,,,,,,,,,,,,,sub-003,44.6,42.4,46.1,COM3,2024-01-23_16h34.06.024,2024_RDpaindiscrimination_maintask,2023.2.3,59.989549819851696,2024-01-23 16h34.34.572753 -0500,
0,0,0,0,8,0,8,0,,,,,,,,,,,,,296.94217500000013,,,,,,,,296.9291596000003,301.9261280999999,301.92613970000093,301.94229899999846,312.009208200001,311.9267751999978,0,active,42.4,311.92678929999965,316.0291990000005,15.000000000000075,4.032,,,,,,,,,,,,,,,,,,,,,,,,,,,,,,,,,,,,,,sub-003,44.6,42.4,46.1,COM3,2024-01-23_16h34.06.024,2024_RDpaindiscrimination_maintask,2023.2.3,59.989549819851696,2024-01-23 16h34.34.572753 -0500,
0,0,0,0,9,0,9,0,,,,,,,,,,,,,316.0594362999982,,,,,,,,316.0309438999975,321.0428025000001,321.04281360000095,321.0594259999998,,331.0430429000007,1,inactive,44.6,331.043056399998,334.3283018000002,46.9999999999999,3.215,,,,,,,,,,,,,,,,,,,,,,,,,,,,,,,,,,,,,,sub-003,44.6,42.4,46.1,COM3,2024-01-23_16h34.06.024,2024_RDpaindiscrimination_maintask,2023.2.3,59.989549819851696,2024-01-23 16h34.34.572753 -0500,
0,0,0,0,10,0,10,0,,,,,,,,,,,,,334.3431845999985,,,,,,,,334.32924419999836,339.32701729999826,339.32702979999885,339.34318770000027,349.4100753999992,349.32776190000004,2,active,42.4,349.327776099999,351.62940549999985,32.999999999999964,2.23,,,,,,,,,,,,,,,,,,,,,,,,,,,,,,,,,,,,,,sub-003,44.6,42.4,46.1,COM3,2024-01-23_16h34.06.024,2024_RDpaindiscrimination_maintask,2023.2.3,59.989549819851696,2024-01-23 16h34.34.572753 -0500,
0,0,0,0,11,0,11,0,,,,,,,,,,,,,351.6434401000006,,,,,,,,351.63000140000076,356.6274682000003,356.62748009999996,356.6435791999975,366.7105006999991,366.6281627999997,3,active,42.4,366.6281773999981,370.56278069999826,32.000000000000036,3.864,,,,,,,,,,,,,,,,,,,,,,,,,,,,,,,,,,,,,,sub-003,44.6,42.4,46.1,COM3,2024-01-23_16h34.06.024,2024_RDpaindiscrimination_maintask,2023.2.3,59.989549819851696,2024-01-23 16h34.34.572753 -0500,
0,0,0,0,12,0,12,0,,,,,,,,,,,,,370.5940616000007,,,,,,,,370.5645504999993,375.5774261999977,375.5774371999978,375.5941028999987,,385.5776724999996,0,inactive,44.6,385.57768639999995,387.3977535999984,55.500000000000014,1.75,,,,,,,,,,,,,,,,,,,,,,,,,,,,,,,,,,,,,,sub-003,44.6,42.4,46.1,COM3,2024-01-23_16h34.06.024,2024_RDpaindiscrimination_maintask,2023.2.3,59.989549819851696,2024-01-23 16h34.34.572753 -0500,
0,0,0,0,13,0,13,0,,,,,,,,,,,,,387.4277798000003,,,,,,,,387.3994877999976,392.41117219999796,392.41118359999746,392.42777959999876,,402.4114038000007,1,active,42.4,402.41141770000104,406.1300104000002,20.500000000000078,3.648,,,,,,,,,,,,,,,,,,,,,,,,,,,,,,,,,,,,,,sub-003,44.6,42.4,46.1,COM3,2024-01-23_16h34.06.024,2024_RDpaindiscrimination_maintask,2023.2.3,59.989549819851696,2024-01-23 16h34.34.572753 -0500,
0,0,0,0,14,0,14,0,,,,,,,,,,,,,406.1447466999998,,,,,,,,406.1305911999989,411.1287149999989,411.12872659999994,411.1448677999979,421.2117886999986,421.12942380000095,2,inactive,44.6,421.12943749999977,423.58138640000107,60.49999999999993,2.382,,,,,,,,,,,,,,,,,,,,,,,,,,,,,,,,,,,,,,sub-003,44.6,42.4,46.1,COM3,2024-01-23_16h34.06.024,2024_RDpaindiscrimination_maintask,2023.2.3,59.989549819851696,2024-01-23 16h34.34.572753 -0500,
0,0,0,0,15,0,15,0,,,,,,,,,,,,,423.6119887999994,,,,,,,,423.5831732999977,428.5953496000002,428.5953609999997,428.61197320000065,,438.59559660000014,3,active,42.4,438.59561069999836,441.1642202000003,30.0,2.498,,,,,,,,,,,,,,,,,,,,,,,,,,,,,,,,,,,,,,sub-003,44.6,42.4,46.1,COM3,2024-01-23_16h34.06.024,2024_RDpaindiscrimination_maintask,2023.2.3,59.989549819851696,2024-01-23 16h34.34.572753 -0500,
0,0,0,0,,,,,0,0,0,0,0,0,0,0,,,,,493.94680940000035,,,,,,489.73182539999834,493.9312694,,,,,,,0,active,,508.93152329999793,511.54958310000075,54.499999999999915,2.548,441.16462369999863,441.17893410000033,489.73113659999945,493.93187879999823,498.93077849999827,498.9307910999996,498.94694199999867,509.0138521999979,508.9315096999999,,,,,,,,,,,,,,,,,,,,,,,,,,,,,sub-003,44.6,42.4,46.1,COM3,2024-01-23_16h34.06.024,2024_RDpaindiscrimination_maintask,2023.2.3,59.989549819851696,2024-01-23 16h34.34.572753 -0500,
0,0,0,0,,,,,0,0,0,0,1,0,1,0,,,,,511.5640433000008,,,,,,,,,,,,,,1,inactive,,526.5486034999994,530.3830062999987,61.49999999999986,3.764,,,,511.55062420000104,516.5478851000007,516.5478977999992,516.5640519000008,526.6309370999988,526.548591499999,,,,,,,,,,,,,,,,,,,,,,,,,,,,,sub-003,44.6,42.4,46.1,COM3,2024-01-23_16h34.06.024,2024_RDpaindiscrimination_maintask,2023.2.3,59.989549819851696,2024-01-23 16h34.34.572753 -0500,
0,0,0,0,,,,,0,0,0,0,,,,,0,0,0,0,534.6644620999978,,,,,,,,,,,,,,2,active,,,,,,,,,,,,,,,530.3833331999995,534.6487548000005,534.6494082999998,539.648412999999,539.6484263999992,539.664602599998,547.1480874999979,547.1480874999979,550.1481566000002,550.1481566000002,550.6148549999998,550.5986661999996,3.67,4.38,442,438,7.5,1.2,0.75,pic-present,1,n,1.4188854999993055,None,,,,,sub-003,44.6,42.4,46.1,COM3,2024-01-23_16h34.06.024,2024_RDpaindiscrimination_maintask,2023.2.3,59.989549819851696,2024-01-23 16h34.34.572753 -0500,
0,0,0,0,,,,,0,0,0,0,,,,,1,0,1,0,550.6148549999998,,,,,,,,,,,,,,3,inactive,,,,,,,,,,,,,,,,,550.6006608999996,555.5988068000006,555.5988209999996,555.6149598999982,563.1151355000002,563.1151355000002,566.1152225999977,566.1152225999977,566.5652005999982,566.549072400001,3.36,4.69,411,469,7.5,1.2,0.75,pic-absent,0,m,0.9758177000003343,None,,,,,sub-003,44.6,42.4,46.1,COM3,2024-01-23_16h34.06.024,2024_RDpaindiscrimination_maintask,2023.2.3,59.989549819851696,2024-01-23 16h34.34.572753 -0500,
0,0,0,0,,,,,0,0,0,0,,,,,2,0,2,0,566.5652005999982,,,,,,,,,,,,,,0,inactive,,,,,,,,,,,,,,,,,566.5506271999984,571.5491532999986,571.5491676999991,571.5653533000004,579.0655107999992,579.0655107999992,582.0655942999983,582.0655942999983,582.5156242999983,582.4994465999989,3.96,4.09,471,409,7.5,1.2,0.75,pic-present,1,n,0.8776842999977816,None,,,,,sub-003,44.6,42.4,46.1,COM3,2024-01-23_16h34.06.024,2024_RDpaindiscrimination_maintask,2023.2.3,59.989549819851696,2024-01-23 16h34.34.572753 -0500,
0,0,0,0,,,,,0,0,0,0,,,,,3,0,3,0,582.5156242999983,,,,,,,,,,,,,,1,active,,,,,,,,,,,,,,,,,582.501009399999,587.499558200001,587.4995715999976,587.515729499999,595.0158850000007,595.0158850000007,598.0159774999993,598.0159774999993,598.4659888999995,598.4498163999997,3.6,4.45,435,445,7.5,1.2,0.75,pic-absent,0,m,0.9672608999971999,None,,,,,sub-003,44.6,42.4,46.1,COM3,2024-01-23_16h34.06.024,2024_RDpaindiscrimination_maintask,2023.2.3,59.989549819851696,2024-01-23 16h34.34.572753 -0500,
0,0,0,0,,,,,1,0,1,0,0,0,0,0,,,,,602.2827481999993,,,,,,598.4514175999975,602.2669626999996,,,,,,,2,inactive,,617.2674154999986,620.0518448000003,66.49999999999991,2.714,,,,602.2675854000008,607.2668147000004,607.2668525000008,607.282849700001,617.3497418000006,617.2674038999976,,,,,,,,,,,,,,,,,,,,,,,,,,,,,sub-003,44.6,42.4,46.1,COM3,2024-01-23_16h34.06.024,2024_RDpaindiscrimination_maintask,2023.2.3,59.989549819851696,2024-01-23 16h34.34.572753 -0500,
0,0,0,0,,,,,1,0,1,0,1,0,1,0,,,,,620.0667088000009,,,,,,,,,,,,,,3,active,,635.0512965999988,637.401866799999,50.50000000000007,2.28,,,,620.0529631999998,625.0504322999986,625.0504451999986,625.0666247000008,635.133530799998,635.051284000001,,,,,,,,,,,,,,,,,,,,,,,,,,,,,sub-003,44.6,42.4,46.1,COM3,2024-01-23_16h34.06.024,2024_RDpaindiscrimination_maintask,2023.2.3,59.989549819851696,2024-01-23 16h34.34.572753 -0500,
0,0,0,0,,,,,1,0,1,0,,,,,0,0,0,0,639.9669571999984,,,,,,,,,,,,,,0,inactive,,,,,,,,,,,,,,,637.402391399999,639.9512348999997,639.951896999999,644.9509082999975,644.950922,644.9670757999993,652.4506001000009,652.4506001000009,655.4506556999986,655.4506556999986,655.9173357,655.9011664999998,4.18,3.87,493,387,7.5,1.2,0.75,pic-present,1,n,1.2080146999978751,None,,,,,sub-003,44.6,42.4,46.1,COM3,2024-01-23_16h34.06.024,2024_RDpaindiscrimination_maintask,2023.2.3,59.989549819851696,2024-01-23 16h34.34.572753 -0500,
0,0,0,0,,,,,1,0,1,0,,,,,1,0,1,0,655.9173357,,,,,,,,,,,,,,1,active,,,,,,,,,,,,,,,,,655.9028954999994,660.9013739000002,660.9013874999982,660.9174528999974,668.4176144999983,668.4176144999983,671.4177005999991,671.4177005999991,671.8677134999998,671.8515493999985,3.47,4.58,422,458,7.5,1.2,0.75,pic-absent,0,m,1.001974800001335,None,,,,,sub-003,44.6,42.4,46.1,COM3,2024-01-23_16h34.06.024,2024_RDpaindiscrimination_maintask,2023.2.3,59.989549819851696,2024-01-23 16h34.34.572753 -0500,
0,0,0,0,,,,,1,0,1,0,,,,,2,0,2,0,671.8677134999998,,,,,,,,,,,,,,2,inactive,,,,,,,,,,,,,,,,,671.8531332999992,676.8516982000001,676.8517116000003,676.8678299999992,684.3680257999986,684.3680257999986,687.3680791000006,687.3680791000006,687.8181067000005,687.8018898999981,3.67,4.38,442,438,7.5,1.2,0.75,pic-absent,0,m,0.9511829000002763,None,,,,,sub-003,44.6,42.4,46.1,COM3,2024-01-23_16h34.06.024,2024_RDpaindiscrimination_maintask,2023.2.3,59.989549819851696,2024-01-23 16h34.34.572753 -0500,
0,0,0,0,,,,,1,0,1,0,,,,,3,0,3,0,687.8181067000005,,,,,,,,,,,,,,3,active,,,,,,,,,,,,,,,,,687.8034568000003,692.8020367999998,692.8020504999986,692.8182124999985,700.3185267000008,700.3185267000008,703.3184591999998,703.3184591999998,703.7684694999989,703.7523408999987,3.48,4.57,423,457,7.5,1.2,0.75,pic-present,1,n,0.992617899999459,None,,,,,sub-003,44.6,42.4,46.1,COM3,2024-01-23_16h34.06.024,2024_RDpaindiscrimination_maintask,2023.2.3,59.989549819851696,2024-01-23 16h34.34.572753 -0500,
0,0,0,0,,,,,2,0,2,0,0,0,0,0,,,,,706.6185401000002,,,,,,703.7539408999983,706.6028052000001,,,,,,,0,active,,721.6032606000008,724.8549988999985,27.500000000000053,3.181,,,,706.6034398999982,711.6025148999979,711.6025277000008,711.6186768000007,721.685564200001,721.6032491999977,,,,,,,,,,,,,,,,,,,,,,,,,,,,,sub-003,44.6,42.4,46.1,COM3,2024-01-23_16h34.06.024,2024_RDpaindiscrimination_maintask,2023.2.3,59.989549819851696,2024-01-23 16h34.34.572753 -0500,
0,0,0,0,,,,,2,0,2,0,1,0,1,0,,,,,724.8857065999982,,,,,,,,,,,,,,1,inactive,,739.8694197999976,742.4039594999995,59.500000000000036,2.464,,,,724.8565755999989,729.869155299999,729.8691669,729.8857477999991,,739.8694075999992,,,,,,,,,,,,,,,,,,,,,,,,,,,,,sub-003,44.6,42.4,46.1,COM3,2024-01-23_16h34.06.024,2024_RDpaindiscrimination_maintask,2023.2.3,59.989549819851696,2024-01-23 16h34.34.572753 -0500,
0,0,0,0,,,,,2,0,2,0,,,,,0,0,0,0,745.4861220999992,,,,,,,,,,,,,,2,inactive,,,,,,,,,,,,,,,742.4042950000003,745.4706688000006,745.4713850000007,750.4701944000008,750.4702075999994,750.4862899,757.9697548000004,757.9697548000004,760.9698260000005,760.9698260000005,761.519868899999,761.4203506999984,3.48,4.57,423,457,7.5,1.2,0.75,pic-absent,0,m,0.9857101000015973,None,,,,,sub-003,44.6,42.4,46.1,COM3,2024-01-23_16h34.06.024,2024_RDpaindiscrimination_maintask,2023.2.3,59.989549819851696,2024-01-23 16h34.34.572753 -0500,
0,0,0,0,,,,,2,0,2,0,,,,,1,0,1,0,761.519868899999,,,,,,,,,,,,,,3,active,,,,,,,,,,,,,,,,,761.4220582999988,766.4366735999974,766.436686699999,766.4532890999981,773.9367757,773.9367757,776.9368862999982,776.9368862999982,777.4035503999985,777.3873765999997,3.46,4.59,421,459,7.5,1.2,0.75,pic-present,1,n,0.9658564999990631,None,,,,,sub-003,44.6,42.4,46.1,COM3,2024-01-23_16h34.06.024,2024_RDpaindiscrimination_maintask,2023.2.3,59.989549819851696,2024-01-23 16h34.34.572753 -0500,
0,0,0,0,,,,,2,0,2,0,,,,,2,0,2,0,777.4035503999985,,,,,,,,,,,,,,0,active,,,,,,,,,,,,,,,,,777.3889395999977,782.3875010000011,782.3875141999997,782.4036854999977,789.9038412000009,789.9038412000009,792.9039301999983,792.9039301999983,793.3539314000009,793.3377748999992,4.06,3.99,480,399,7.5,1.2,0.75,pic-absent,0,m,1.2268710999996983,None,,,,,sub-003,44.6,42.4,46.1,COM3,2024-01-23_16h34.06.024,2024_RDpaindiscrimination_maintask,2023.2.3,59.989549819851696,2024-01-23 16h34.34.572753 -0500,
0,0,0,0,,,,,2,0,2,0,,,,,3,0,3,0,793.3539314000009,,,,,,,,,,,,,,1,inactive,,,,,,,,,,,,,,,,,793.3393428999989,798.3378967999997,798.3379103999978,798.3540469,805.854239799999,805.854239799999,808.8543067999999,808.8543067999999,809.3043049000007,809.2881675999997,3.9,4.15,465,415,7.5,1.2,0.75,pic-present,1,n,1.0369446000004245,None,,,,,sub-003,44.6,42.4,46.1,COM3,2024-01-23_16h34.06.024,2024_RDpaindiscrimination_maintask,2023.2.3,59.989549819851696,2024-01-23 16h34.34.572753 -0500,
0,0,0,0,,,,,3,0,3,0,0,0,0,0,,,,,812.571046699999,,,,,,809.289770299998,812.5553823000009,,,,,,,2,inactive,,827.5714862999994,829.5896563999995,55.500000000000014,1.948,,,,812.5559986000007,817.5550794999981,817.555092300001,817.5878483999986,,827.5714751999985,,,,,,,,,,,,,,,,,,,,,,,,,,,,,sub-003,44.6,42.4,46.1,COM3,2024-01-23_16h34.06.024,2024_RDpaindiscrimination_maintask,2023.2.3,59.989549819851696,2024-01-23 16h34.34.572753 -0500,
0,0,0,0,,,,,3,0,3,0,1,0,1,0,,,,,829.6048044999989,,,,,,,,,,,,,,3,active,,844.5894985999985,846.5414394,65.50000000000001,1.882,,,,829.5902053999998,834.5887755000003,834.5887880000009,834.6050257999996,844.6718292000005,844.5894864000002,,,,,,,,,,,,,,,,,,,,,,,,,,,,,sub-003,44.6,42.4,46.1,COM3,2024-01-23_16h34.06.024,2024_RDpaindiscrimination_maintask,2023.2.3,59.989549819851696,2024-01-23 16h34.34.572753 -0500,
0,0,0,0,,,,,3,0,3,0,,,,,0,0,0,0,849.405273299999,,,,,,,,,,,,,,0,active,,,,,,,,,,,,,,,846.5423878000001,849.3895282999983,849.3901793000005,854.3892268999989,854.3892401999983,854.4053898999991,861.8888832999983,861.8888832999983,864.8889559999989,864.8889559999989,865.3556339999996,865.339501399998,3.74,4.31,449,430,7.5,1.2,0.75,pic-absent,0,m,1.0414361000002827,None,,,,,sub-003,44.6,42.4,46.1,COM3,2024-01-23_16h34.06.024,2024_RDpaindiscrimination_maintask,2023.2.3,59.989549819851696,2024-01-23 16h34.34.572753 -0500,
0,0,0,0,,,,,3,0,3,0,,,,,1,0,1,0,865.3556339999996,,,,,,,,,,,,,,1,inactive,,,,,,,,,,,,,,,,,865.3412067999998,870.3396291999998,870.3396434999995,870.3557670000009,877.8559256000008,877.8559256000008,880.8559974999989,880.8559974999989,881.3060253999975,881.2898356000005,4.24,3.81,499,381,7.5,1.2,0.75,pic-present,1,n,0.9745214999966265,None,,,,,sub-003,44.6,42.4,46.1,COM3,2024-01-23_16h34.06.024,2024_RDpaindiscrimination_maintask,2023.2.3,59.989549819851696,2024-01-23 16h34.34.572753 -0500,
0,0,0,0,,,,,3,0,3,0,,,,,2,0,2,0,881.3060253999975,,,,,,,,,,,,,,2,active,,,,,,,,,,,,,,,,,881.2913899999985,886.289959400001,886.2899732000005,886.3061381000007,893.8063072000004,893.8063072000004,896.8063935999999,896.8063935999999,897.2563862999996,897.2402585999989,3.46,4.59,421,459,7.5,1.2,0.75,pic-present,1,n,0.784174599997641,None,,,,,sub-003,44.6,42.4,46.1,COM3,2024-01-23_16h34.06.024,2024_RDpaindiscrimination_maintask,2023.2.3,59.989549819851696,2024-01-23 16h34.34.572753 -0500,
0,0,0,0,,,,,3,0,3,0,,,,,3,0,3,0,897.2563862999996,,,,,,,,,,,,,,3,inactive,,,,,,,,,,,,,,,,,897.2418287,902.240355599999,902.2403699999995,902.256524299999,909.7566803000009,909.7566803000009,912.7567702999986,912.7567702999986,913.2401215999998,913.1906374999999,3.63,4.42,438,442,7.5,1.2,0.75,pic-absent,0,m,1.017921299997397,None,,,,,sub-003,44.6,42.4,46.1,COM3,2024-01-23_16h34.06.024,2024_RDpaindiscrimination_maintask,2023.2.3,59.989549819851696,2024-01-23 16h34.34.572753 -0500,
1,0,1,0,0,0,0,0,,,,,,,,,,,,,989.2919244000004,,,,980.5431159,987.4928500999995,987.4928663999999,989.2762890999984,989.2769277000007,994.2758512,994.2758633999983,994.2920364999991,1004.3756140000005,1004.2765899999977,0,inactive,44.6,1004.2766040999995,1006.3775884999995,37.000000000000085,2.02,,,,,,,,,,,,,,,,,,,,,,,,,,,,,,,,,,913.1920686999983,980.5428494999978,,,sub-003,44.6,42.4,46.1,COM3,2024-01-23_16h34.06.024,2024_RDpaindiscrimination_maintask,2023.2.3,59.989549819851696,2024-01-23 16h34.34.572753 -0500,
1,0,1,0,1,0,1,0,,,,,,,,,,,,,1006.3922859999984,,,,,,,,1006.3789599999982,1011.3762935999985,1011.3763059999983,1011.3924277000006,1021.459362900001,1021.3770509999995,1,active,42.4,1021.3770650000006,1023.5288832999977,4.000000000000022,2.082,,,,,,,,,,,,,,,,,,,,,,,,,,,,,,,,,,,,,,sub-003,44.6,42.4,46.1,COM3,2024-01-23_16h34.06.024,2024_RDpaindiscrimination_maintask,2023.2.3,59.989549819851696,2024-01-23 16h34.34.572753 -0500,
1,0,1,0,2,0,2,0,,,,,,,,,,,,,1023.5594144999995,,,,,,,,1023.5306218000005,1028.5428992999987,1028.5429122999994,1028.5596191000004,,1038.5431475000005,2,inactive,44.6,1038.5431613,1040.9622710999975,58.4999999999999,2.349,,,,,,,,,,,,,,,,,,,,,,,,,,,,,,,,,,,,,,sub-003,44.6,42.4,46.1,COM3,2024-01-23_16h34.06.024,2024_RDpaindiscrimination_maintask,2023.2.3,59.989549819851696,2024-01-23 16h34.34.572753 -0500,
1,0,1,0,3,0,3,0,,,,,,,,,,,,,1040.9764981999979,,,,,,,,1040.9634559000006,1045.9604580999985,1045.960469900001,1045.9765597999976,1056.0435049000007,1055.9610643999986,3,active,42.4,1055.9610785000004,1058.5620722999993,22.000000000000135,2.53,,,,,,,,,,,,,,,,,,,,,,,,,,,,,,,,,,,,,,sub-003,44.6,42.4,46.1,COM3,2024-01-23_16h34.06.024,2024_RDpaindiscrimination_maintask,2023.2.3,59.989549819851696,2024-01-23 16h34.34.572753 -0500,
1,0,1,0,4,0,4,0,,,,,,,,,,,,,1058.576896399998,,,,,,,,1058.5626654999978,1063.560841399998,1063.5608532000006,1063.5770139999986,1073.6438936999984,1073.5615770000004,0,active,42.4,1073.561591400001,1077.0474032999991,20.500000000000142,3.416,,,,,,,,,,,,,,,,,,,,,,,,,,,,,,,,,,,,,,sub-003,44.6,42.4,46.1,COM3,2024-01-23_16h34.06.024,2024_RDpaindiscrimination_maintask,2023.2.3,59.989549819851696,2024-01-23 16h34.34.572753 -0500,
1,0,1,0,5,0,5,0,,,,,,,,,,,,,1077.0773425999978,,,,,,,,1077.0491311999976,1082.0608536,1082.060864799998,1082.0774544999986,,1092.0610836999986,1,inactive,44.6,1092.0610970999987,1095.347172400001,44.99999999999994,3.216,,,,,,,,,,,,,,,,,,,,,,,,,,,,,,,,,,,,,,sub-003,44.6,42.4,46.1,COM3,2024-01-23_16h34.06.024,2024_RDpaindiscrimination_maintask,2023.2.3,59.989549819851696,2024-01-23 16h34.34.572753 -0500,
1,0,1,0,6,0,6,0,,,,,,,,,,,,,1095.377805600001,,,,,,,,1095.3490826999987,1100.3612721999998,1100.3612833999978,1100.3778882999977,,1110.3615070999986,2,active,42.4,1110.3615205999995,1113.7817026999983,17.000000000000174,3.35,,,,,,,,,,,,,,,,,,,,,,,,,,,,,,,,,,,,,,sub-003,44.6,42.4,46.1,COM3,2024-01-23_16h34.06.024,2024_RDpaindiscrimination_maintask,2023.2.3,59.989549819851696,2024-01-23 16h34.34.572753 -0500,
1,0,1,0,7,0,7,0,,,,,,,,,,,,,1113.8116501999975,,,,,,,,1113.7834213999995,1118.7950579999997,1118.7950693999992,1118.8116386000002,,1128.7952521000007,3,inactive,44.6,1128.7952656999987,1131.481338499998,52.499999999999886,2.615,,,,,,,,,,,,,,,,,,,,,,,,,,,,,,,,,,,,,,sub-003,44.6,42.4,46.1,COM3,2024-01-23_16h34.06.024,2024_RDpaindiscrimination_maintask,2023.2.3,59.989549819851696,2024-01-23 16h34.34.572753 -0500,
1,0,1,0,8,0,8,0,,,,,,,,,,,,,1131.5120337999979,,,,,,,,1131.4830427999987,1136.4954603999977,1136.4954718000008,1136.5120745999993,,1146.4956657000002,0,active,42.4,1146.4956794999998,1149.6483660999984,14.000000000000208,3.083,,,,,,,,,,,,,,,,,,,,,,,,,,,,,,,,,,,,,,sub-003,44.6,42.4,46.1,COM3,2024-01-23_16h34.06.024,2024_RDpaindiscrimination_maintask,2023.2.3,59.989549819851696,2024-01-23 16h34.34.572753 -0500,
1,0,1,0,9,0,9,0,,,,,,,,,,,,,1149.6623963999991,,,,,,,,1149.648966599998,1154.646345199999,1154.6463571999993,1154.6624902999974,1164.7294158999975,1164.6470431999987,1,inactive,44.6,1164.6470578000008,1166.8650471,56.000000000000085,2.147,,,,,,,,,,,,,,,,,,,,,,,,,,,,,,,,,,,,,,sub-003,44.6,42.4,46.1,COM3,2024-01-23_16h34.06.024,2024_RDpaindiscrimination_maintask,2023.2.3,59.989549819851696,2024-01-23 16h34.34.572753 -0500,
1,0,1,0,10,0,10,0,,,,,,,,,,,,,1166.8794684999993,,,,,,,,1166.8656634,1171.8634316999996,1171.8634439999987,1171.8795697999994,1181.9464714999995,1181.8641515999989,2,active,42.4,1181.8641661000001,1183.2149088000006,33.50000000000006,1.28,,,,,,,,,,,,,,,,,,,,,,,,,,,,,,,,,,,,,,sub-003,44.6,42.4,46.1,COM3,2024-01-23_16h34.06.024,2024_RDpaindiscrimination_maintask,2023.2.3,59.989549819851696,2024-01-23 16h34.34.572753 -0500,
1,0,1,0,11,0,11,0,,,,,,,,,,,,,1183.229853500001,,,,,,,,1183.215486000001,1188.2138450999992,1188.2138577999976,1188.2299731999992,1198.2968776999987,1198.2146259,3,inactive,44.6,1198.2146403999977,1201.8656459999984,51.4999999999999,3.581,,,,,,,,,,,,,,,,,,,,,,,,,,,,,,,,,,,,,,sub-003,44.6,42.4,46.1,COM3,2024-01-23_16h34.06.024,2024_RDpaindiscrimination_maintask,2023.2.3,59.989549819851696,2024-01-23 16h34.34.572753 -0500,
1,0,1,0,12,0,12,0,,,,,,,,,,,,,1201.8804156000006,,,,,,,,1201.8667572999984,1206.8642827999975,1206.8642947999979,1206.8804141,1216.947320700001,1216.864892900001,0,inactive,44.6,1216.8649067000006,1219.150127599998,55.500000000000085,2.216,,,,,,,,,,,,,,,,,,,,,,,,,,,,,,,,,,,,,,sub-003,44.6,42.4,46.1,COM3,2024-01-23_16h34.06.024,2024_RDpaindiscrimination_maintask,2023.2.3,59.989549819851696,2024-01-23 16h34.34.572753 -0500,
1,0,1,0,13,0,13,0,,,,,,,,,,,,,1219.180840500001,,,,,,,,1219.1518590999985,1224.1642021000007,1224.164213600001,1224.1809355000005,,1234.1644493999993,1,active,42.4,1234.1644632999996,1238.1837731999985,0.0,3.949,,,,,,,,,,,,,,,,,,,,,,,,,,,,,,,,,,,,,,sub-003,44.6,42.4,46.1,COM3,2024-01-23_16h34.06.024,2024_RDpaindiscrimination_maintask,2023.2.3,59.989549819851696,2024-01-23 16h34.34.572753 -0500,
1,0,1,0,14,0,14,0,,,,,,,,,,,,,1238.2145373999992,,,,,,,,1238.1854878999984,1243.1980084999996,1243.1980221999984,1243.2146087,,1253.1982700000008,2,inactive,44.6,1253.1982841999998,1254.9171743000006,56.99999999999994,1.648,,,,,,,,,,,,,,,,,,,,,,,,,,,,,,,,,,,,,,sub-003,44.6,42.4,46.1,COM3,2024-01-23_16h34.06.024,2024_RDpaindiscrimination_maintask,2023.2.3,59.989549819851696,2024-01-23 16h34.34.572753 -0500,
1,0,1,0,15,0,15,0,,,,,,,,,,,,,1254.9315509000007,,,,,,,,1254.917752199999,1259.9156029000005,1259.9156158999976,1259.9316957999981,1269.9985737999996,1269.916257099998,3,active,42.4,1269.9162708999975,1272.9863184999995,15.00000000000021,3.0,,,,,,,,,,,,,,,,,,,,,,,,,,,,,,,,,,,,,,sub-003,44.6,42.4,46.1,COM3,2024-01-23_16h34.06.024,2024_RDpaindiscrimination_maintask,2023.2.3,59.989549819851696,2024-01-23 16h34.34.572753 -0500,
1,0,1,0,,,,,0,0,0,0,0,0,0,0,,,,,1288.5823438000007,,,,,,1287.250550599998,1288.566745600001,,,,,,,0,inactive,,1303.5669608999997,1306.101117899998,67.00000000000004,2.463,1272.9873823999988,1272.9987559,1287.2498863,1288.5673452999981,1293.5663074000004,1293.5663201999996,1293.5824291999998,1303.6493746999986,1303.566947899999,,,,,,,,,,,,,,,,,,,,,,,,,,,,,sub-003,44.6,42.4,46.1,COM3,2024-01-23_16h34.06.024,2024_RDpaindiscrimination_maintask,2023.2.3,59.989549819851696,2024-01-23 16h34.34.572753 -0500,
1,0,1,0,,,,,0,0,0,0,1,0,1,0,,,,,1306.1161016000005,,,,,,,,,,,,,,1,active,,1321.1008144000007,1323.5194453000004,63.99999999999988,2.349,,,,1306.1016676,1311.1000521999995,1311.1000652000002,1311.1163259999994,1321.1831205999988,1321.1008015999978,,,,,,,,,,,,,,,,,,,,,,,,,,,,,sub-003,44.6,42.4,46.1,COM3,2024-01-23_16h34.06.024,2024_RDpaindiscrimination_maintask,2023.2.3,59.989549819851696,2024-01-23 16h34.34.572753 -0500,
1,0,1,0,,,,,0,0,0,0,,,,,0,0,0,0,1326.7832361,,,,,,,,,,,,,,2,inactive,,,,,,,,,,,,,,,1323.5203874,1326.7674815999999,1326.7681578999982,1331.7671805999998,1331.7671941000008,1331.7833519999986,1339.266882699998,1339.266882699998,1342.2669356000006,1342.2669356000006,1342.7336135999976,1342.7174890999995,3.71,4.34,446,434,7.5,1.2,0.75,pic-present,1,n,0.6100857999990694,None,,,,,sub-003,44.6,42.4,46.1,COM3,2024-01-23_16h34.06.024,2024_RDpaindiscrimination_maintask,2023.2.3,59.989549819851696,2024-01-23 16h34.34.572753 -0500,
1,0,1,0,,,,,0,0,0,0,,,,,1,0,1,0,1342.7336135999976,,,,,,,,,,,,,,3,active,,,,,,,,,,,,,,,,,1342.7192380999986,1347.7175803999999,1347.7175946999996,1347.7337494999992,1355.2339035999976,1355.2339035999976,1358.2339603,1358.2339603,1358.6839908000002,1358.6678390999987,3.98,4.07,473,407,7.5,1.2,0.75,pic-absent,0,m,0.6359854000002088,None,,,,,sub-003,44.6,42.4,46.1,COM3,2024-01-23_16h34.06.024,2024_RDpaindiscrimination_maintask,2023.2.3,59.989549819851696,2024-01-23 16h34.34.572753 -0500,
1,0,1,0,,,,,0,0,0,0,,,,,2,0,2,0,1358.6839908000002,,,,,,,,,,,,,,0,inactive,,,,,,,,,,,,,,,,,1358.6694174999975,1363.6679392999977,1363.6679532999988,1363.6841041999978,1371.1843047000002,1371.1843047000002,1374.1843726000006,1374.1843726000006,1374.6343529000005,1374.6181786999987,3.52,4.53,427,453,7.5,1.2,0.75,pic-present,1,n,0.5813849000005575,None,,,,,sub-003,44.6,42.4,46.1,COM3,2024-01-23_16h34.06.024,2024_RDpaindiscrimination_maintask,2023.2.3,59.989549819851696,2024-01-23 16h34.34.572753 -0500,
1,0,1,0,,,,,0,0,0,0,,,,,3,0,3,0,1374.6343529000005,,,,,,,,,,,,,,1,inactive,,,,,,,,,,,,,,,,,1374.6197468999999,1379.6184028999996,1379.6184169999979,1379.634489699998,1387.1346653,1387.1346653,1390.134738599998,1390.134738599998,1390.5847471999987,1390.568593,3.73,4.32,448,432,7.5,1.2,0.75,pic-absent,0,m,0.5261895000003278,None,,,,,sub-003,44.6,42.4,46.1,COM3,2024-01-23_16h34.06.024,2024_RDpaindiscrimination_maintask,2023.2.3,59.989549819851696,2024-01-23 16h34.34.572753 -0500,
1,0,1,0,,,,,1,0,1,0,0,0,0,0,,,,,1396.0515616999983,,,,,,1390.5701875999985,1396.0357774000004,,,,,,,2,active,,1411.0362760999997,1413.386762099999,57.999999999999936,2.28,,,,1396.036411699999,1401.0355019999988,1401.0355151000003,1401.051663899998,1411.1185856999982,1411.0362639999985,,,,,,,,,,,,,,,,,,,,,,,,,,,,,sub-003,44.6,42.4,46.1,COM3,2024-01-23_16h34.06.024,2024_RDpaindiscrimination_maintask,2023.2.3,59.989549819851696,2024-01-23 16h34.34.572753 -0500,
1,0,1,0,,,,,1,0,1,0,1,0,1,0,,,,,1413.4020597999988,,,,,,,,,,,,,,3,inactive,,1428.3865735,1430.7388758999987,51.0000000000001,2.281,,,,1413.3878301000004,1418.385949899999,1418.3859625000005,1418.402059,1428.4689996999987,1428.3865613999988,,,,,,,,,,,,,,,,,,,,,,,,,,,,,sub-003,44.6,42.4,46.1,COM3,2024-01-23_16h34.06.024,2024_RDpaindiscrimination_maintask,2023.2.3,59.989549819851696,2024-01-23 16h34.34.572753 -0500,
1,0,1,0,,,,,1,0,1,0,,,,,0,0,0,0,1433.7024423000003,,,,,,,,,,,,,,0,active,,,,,,,,,,,,,,,1430.7392068000008,1433.6868649999997,1433.6875173000008,1438.6863975999986,1438.6864109999988,1438.7026799999985,1446.1860797000008,1446.1860797000008,1449.1861379000002,1449.1861379000002,1449.6528321999976,1449.6366696000005,4.1,3.95,484,395,7.5,1.2,0.75,pic-absent,0,m,0.7147201000007044,None,,,,,sub-003,44.6,42.4,46.1,COM3,2024-01-23_16h34.06.024,2024_RDpaindiscrimination_maintask,2023.2.3,59.989549819851696,2024-01-23 16h34.34.572753 -0500,
1,0,1,0,,,,,1,0,1,0,,,,,1,0,1,0,1449.6528321999976,,,,,,,,,,,,,,1,inactive,,,,,,,,,,,,,,,,,1449.6383879999994,1454.6366772000001,1454.636690899999,1454.6528666999984,1462.1530319999983,1462.1530319999983,1465.1531997999991,1465.1531997999991,1465.6031914999985,1465.5870805999984,3.82,4.23,457,423,7.5,1.2,0.75,pic-present,1,n,0.551874200002203,None,,,,,sub-003,44.6,42.4,46.1,COM3,2024-01-23_16h34.06.024,2024_RDpaindiscrimination_maintask,2023.2.3,59.989549819851696,2024-01-23 16h34.34.572753 -0500,
1,0,1,0,,,,,1,0,1,0,,,,,2,0,2,0,1465.6031914999985,,,,,,,,,,,,,,2,active,,,,,,,,,,,,,,,,,1465.5886475999978,1470.5871853999997,1470.5871990999985,1470.6033091999998,1478.1035052999978,1478.1035052999978,1481.1035591,1481.1035591,1481.5535844000005,1481.53744,4.12,3.93,487,393,7.5,1.2,0.75,pic-absent,0,m,0.9171894999999495,None,,,,,sub-003,44.6,42.4,46.1,COM3,2024-01-23_16h34.06.024,2024_RDpaindiscrimination_maintask,2023.2.3,59.989549819851696,2024-01-23 16h34.34.572753 -0500,
1,0,1,0,,,,,1,0,1,0,,,,,3,0,3,0,1481.5535844000005,,,,,,,,,,,,,,3,inactive,,,,,,,,,,,,,,,,,1481.539033000001,1486.5375238999986,1486.5375375999974,1486.5537055999994,1494.0538511999985,1494.0538511999985,1497.0539308999978,1497.0539308999978,1497.5039505999994,1497.4878218999984,3.83,4.22,458,422,7.5,1.2,0.75,pic-present,1,n,0.6751127999996243,None,,,,,sub-003,44.6,42.4,46.1,COM3,2024-01-23_16h34.06.024,2024_RDpaindiscrimination_maintask,2023.2.3,59.989549819851696,2024-01-23 16h34.34.572753 -0500,
1,0,1,0,,,,,2,0,2,0,0,0,0,0,,,,,1500.3040287000003,,,,,,1497.489415,1500.2882261999985,,,,,,,0,active,,1515.288698100001,1516.9740290000009,21.000000000000103,1.615,,,,1500.2888454999993,1505.2879562999988,1505.2879689000001,1505.3041421999988,1515.3710035999975,1515.2886866000008,,,,,,,,,,,,,,,,,,,,,,,,,,,,,sub-003,44.6,42.4,46.1,COM3,2024-01-23_16h34.06.024,2024_RDpaindiscrimination_maintask,2023.2.3,59.989549819851696,2024-01-23 16h34.34.572753 -0500,
1,0,1,0,,,,,2,0,2,0,1,0,1,0,,,,,1517.0044425999986,,,,,,,,,,,,,,1,inactive,,1531.9881767000006,1533.4409833999998,57.000000000000014,1.383,,,,1516.9755992999999,1521.9879392000003,1521.9879521000003,1522.004510499999,,1531.9881644999987,,,,,,,,,,,,,,,,,,,,,,,,,,,,,sub-003,44.6,42.4,46.1,COM3,2024-01-23_16h34.06.024,2024_RDpaindiscrimination_maintask,2023.2.3,59.989549819851696,2024-01-23 16h34.34.572753 -0500,
1,0,1,0,,,,,2,0,2,0,,,,,0,0,0,0,1536.5715348999984,,,,,,,,,,,,,,2,active,,,,,,,,,,,,,,,1533.4419204999977,1536.5558973000007,1536.556569299999,1541.5555655999997,1541.5555787999983,1541.5716384000007,1549.055128699998,1549.055128699998,1552.0552175999983,1552.0552175999983,1552.5218986,1552.5057591000004,3.76,4.29,451,429,7.5,1.2,0.75,pic-present,1,n,0.5980030999999144,None,,,,,sub-003,44.6,42.4,46.1,COM3,2024-01-23_16h34.06.024,2024_RDpaindiscrimination_maintask,2023.2.3,59.989549819851696,2024-01-23 16h34.34.572753 -0500,
1,0,1,0,,,,,2,0,2,0,,,,,1,0,1,0,1552.5218986,,,,,,,,,,,,,,3,inactive,,,,,,,,,,,,,,,,,1552.5074437000003,1557.5058530999995,1557.5058666000004,1557.5220407999986,1565.0221977,1565.0221977,1568.0222415999997,1568.0222415999997,1568.4722933999983,1568.456196799998,3.46,4.59,421,459,7.5,1.2,0.75,pic-absent,0,m,0.7147504000022309,None,,,,,sub-003,44.6,42.4,46.1,COM3,2024-01-23_16h34.06.024,2024_RDpaindiscrimination_maintask,2023.2.3,59.989549819851696,2024-01-23 16h34.34.572753 -0500,
1,0,1,0,,,,,2,0,2,0,,,,,2,0,2,0,1568.4722933999983,,,,,,,,,,,,,,0,active,,,,,,,,,,,,,,,,,1568.457755200001,1573.4562452999999,1573.4562589999987,1573.4723938999996,1580.9725734999993,1580.9725734999993,1583.9726458000005,1583.9726458000005,1584.422655800001,1584.406472999999,4.02,4.03,476,403,7.5,1.2,0.75,pic-present,1,n,0.8078077000027406,None,,,,,sub-003,44.6,42.4,46.1,COM3,2024-01-23_16h34.06.024,2024_RDpaindiscrimination_maintask,2023.2.3,59.989549819851696,2024-01-23 16h34.34.572753 -0500,
1,0,1,0,,,,,2,0,2,0,,,,,3,0,3,0,1584.422655800001,,,,,,,,,,,,,,1,active,,,,,,,,,,,,,,,,,1584.4080219999996,1589.4066142999982,1589.4066289000002,1589.422795800001,1596.9229470999999,1596.9229470999999,1599.9230255000002,1599.9230255000002,1600.3730299999988,1600.3569320999995,3.34,4.71,409,471,7.5,1.2,0.75,pic-absent,0,m,0.9462667000007059,None,,,,,sub-003,44.6,42.4,46.1,COM3,2024-01-23_16h34.06.024,2024_RDpaindiscrimination_maintask,2023.2.3,59.989549819851696,2024-01-23 16h34.34.572753 -0500,
1,0,1,0,,,,,3,0,3,0,0,0,0,0,,,,,1602.2397385999975,,,,,,1600.3585206999996,1602.2235688,,,,,,,2,inactive,,1617.2244107000006,1619.4774441000009,66.00000000000001,2.183,,,,1602.2242033000002,1607.2236773999975,1607.2236902999975,1607.239856799999,1617.306758499999,1617.2243992999975,,,,,,,,,,,,,,,,,,,,,,,,,,,,,sub-003,44.6,42.4,46.1,COM3,2024-01-23_16h34.06.024,2024_RDpaindiscrimination_maintask,2023.2.3,59.989549819851696,2024-01-23 16h34.34.572753 -0500,
1,0,1,0,,,,,3,0,3,0,1,0,1,0,,,,,1619.5068274999976,,,,,,,,,,,,,,3,active,,1634.4905431999978,1637.6592122000002,48.500000000000114,3.099,,,,1619.4790433999988,1624.4903279999999,1624.4903397999988,1624.5069506,,1634.4905317999983,,,,,,,,,,,,,,,,,,,,,,,,,,,,,sub-003,44.6,42.4,46.1,COM3,2024-01-23_16h34.06.024,2024_RDpaindiscrimination_maintask,2023.2.3,59.989549819851696,2024-01-23 16h34.34.572753 -0500,
1,0,1,0,,,,,3,0,3,0,,,,,0,0,0,0,1641.2739870000005,,,,,,,,,,,,,,0,inactive,,,,,,,,,,,,,,,1637.659635,1641.2584518000003,1641.2591107999979,1646.2585426000005,1646.258582399998,1646.2741400999985,1653.7576252,1653.7576252,1656.7576889999982,1656.7576889999982,1657.2243610000005,1657.2081975,3.54,4.51,429,451,7.5,1.2,0.75,pic-absent,0,m,0.9147511999981361,None,,,,,sub-003,44.6,42.4,46.1,COM3,2024-01-23_16h34.06.024,2024_RDpaindiscrimination_maintask,2023.2.3,59.989549819851696,2024-01-23 16h34.34.572753 -0500,
1,0,1,0,,,,,3,0,3,0,,,,,1,0,1,0,1657.2243610000005,,,,,,,,,,,,,,1,active,,,,,,,,,,,,,,,,,1657.2099052999984,1662.2083158999994,1662.2083304999978,1662.2244823,1669.7246754999978,1669.7246754999978,1672.7247265000005,1672.7247265000005,1673.1747569,1673.1585420999982,3.68,4.37,443,437,7.5,1.2,0.75,pic-present,1,n,0.891432899999927,None,,,,,sub-003,44.6,42.4,46.1,COM3,2024-01-23_16h34.06.024,2024_RDpaindiscrimination_maintask,2023.2.3,59.989549819851696,2024-01-23 16h34.34.572753 -0500,
1,0,1,0,,,,,3,0,3,0,,,,,2,0,2,0,1673.1747569,,,,,,,,,,,,,,2,inactive,,,,,,,,,,,,,,,,,1673.1601186000007,1678.1586979999993,1678.1587125000005,1678.1748728999992,1685.6750520999994,1685.6750520999994,1688.675103999998,1688.675103999998,1689.1251177999984,1689.108944399999,3.68,4.37,443,437,7.5,1.2,0.75,pic-absent,0,m,0.7016847000013513,None,,,,,sub-003,44.6,42.4,46.1,COM3,2024-01-23_16h34.06.024,2024_RDpaindiscrimination_maintask,2023.2.3,59.989549819851696,2024-01-23 16h34.34.572753 -0500,
1,0,1,0,,,,,3,0,3,0,,,,,3,0,3,0,1689.1251177999984,,,,,,,,,,,,,,3,active,,,,,,,,,,,,,,,,,1689.110525,1694.1090758999999,1694.1090903000004,1694.1252337000005,1701.6254267000004,1701.6254267000004,1704.625484100001,1704.625484100001,1705.0755250000002,1705.0594476999977,3.32,4.73,407,473,7.5,1.2,0.75,pic-present,1,n,1.635308900000382,None,,,,,sub-003,44.6,42.4,46.1,COM3,2024-01-23_16h34.06.024,2024_RDpaindiscrimination_maintask,2023.2.3,59.989549819851696,2024-01-23 16h34.34.572753 -0500,
,,,,,,,,,,,,,,,,,,,,,,,,,,,,,,,,,,,,,,,,,,,,,,,,,,,,,,,,,,,,,,,,,,,,,,,,,,1705.0608867999981,1708.2594417,1708.2594783999994,1718.2596468999982,,,,,,,,,,,
